Trial,CorrectAns,choice,RT,Correct,key.started,key.stopped,participant,date,expName,psychopyVersion,frameRate,
1_AF1669_AF1735,left,left,2.2482914000283927,1,1234.596465599956,1236.929059869994,2,2022-12-29-2131,VBDM,2021.2.0,59.77743665115159,
2_AF244_AF1456,left,left,2.797410700004548,1,1238.9271900999593,1241.7622867699597,2,2022-12-29-2131,VBDM,2021.2.0,59.77743665115159,
2_AF967_AF467,left,left,1.4379702999722213,1,1243.7607526000356,1245.2624446699979,2,2022-12-29-2131,VBDM,2021.2.0,59.77743665115159,
1_AF1456_AF1762,left,left,3.0948090000310913,1,1247.2603020999813,1250.479109269951,2,2022-12-29-2131,VBDM,2021.2.0,59.77743665115159,
1_AF113_AF1647,right,right,1.6471600999357179,1,1252.4777157999342,1254.1625020699926,2,2022-12-29-2131,VBDM,2021.2.0,59.77743665115159,
3_AF959_AF1659,right,right,1.511440399917774,1,1256.1596993999556,1257.729301270016,2,2022-12-29-2131,VBDM,2021.2.0,59.77743665115159,
3_AF1366_AF1402,right,right,1.182367500034161,1,1259.727210199926,1260.9787418699475,2,2022-12-29-2131,VBDM,2021.2.0,59.77743665115159,
3_AF1328_AF1365,right,right,1.5191550999879837,1,1262.9763846999267,1264.579365070013,2,2022-12-29-2131,VBDM,2021.2.0,59.77743665115159,
4_AF2001_AF1798,left,left,1.2005162999266759,1,1266.5796188999666,1267.8462138700183,2,2022-12-29-2131,VBDM,2021.2.0,59.77743665115159,
2_AF1597_AF1977,right,right,1.3579035999719054,1,1269.8501273000147,1271.2792490700144,2,2022-12-29-2131,VBDM,2021.2.0,59.77743665115159,
2_AF1966_AF1762,left,left,2.137995500001125,1,1273.2767765999306,1275.479275069933,2,2022-12-29-2131,VBDM,2021.2.0,59.77743665115159,
2_AF1603_AF1643,right,right,2.18255919998046,1,1277.4771123999963,1279.729021469981,2,2022-12-29-2131,VBDM,2021.2.0,59.77743665115159,
2_AF1162_AF1468,right,right,1.5272030000342056,1,1281.7320444999496,1283.3456259699656,2,2022-12-29-2131,VBDM,2021.2.0,59.77743665115159,
2_AF959_AF784,right,right,0.10795320000033826,1,1285.3445838999469,1287.7289820699139,2,2022-12-29-2131,VBDM,2021.2.0,59.77743665115159,
1_AF1335_AF1546,left,left,1.1105257000308484,1,1289.7324057000224,1290.9290034700302,2,2022-12-29-2131,VBDM,2021.2.0,59.77743665115159,
1_AF636_AF1811,left,left,1.9229702999582514,1,1292.932168600033,1294.9294803699363,2,2022-12-29-2131,VBDM,2021.2.0,59.77743665115159,
1_AF1821_AF113,left,left,1.5334297999506816,1,1296.928783099982,1298.5124438699918,2,2022-12-29-2131,VBDM,2021.2.0,59.77743665115159,
4_AF2006_AF1006,left,left,1.1470077999401838,1,1300.5115136000095,1301.7123879699852,2,2022-12-29-2131,VBDM,2021.2.0,59.77743665115159,
2_AF1405_AF1734,left,left,1.4802139999810606,1,1303.711610600003,1305.2789252699936,2,2022-12-29-2131,VBDM,2021.2.0,59.77743665115159,
1_AF1908_AF1006,left,left,1.3662111000157893,1,1307.2753343000077,1308.7458668699605,2,2022-12-29-2131,VBDM,2021.2.0,59.77743665115159,
4_AF1811_AF2001,right,right,1.0064553000265732,1,1310.7457335999934,1311.8125113699703,2,2022-12-29-2131,VBDM,2021.2.0,59.77743665115159,
1_AF2007_AF1689,left,right,2.2401193999685347,0,1313.816883499967,1316.1454370699707,2,2022-12-29-2131,VBDM,2021.2.0,59.77743665115159,
2_AF1846_AF1396,left,left,1.0826459000818431,1,1318.1482403000118,1319.4455487699365,2,2022-12-29-2131,VBDM,2021.2.0,59.77743665115159,
2_AF1527_AF2010,right,right,1.3677082000067458,1,1321.4433257000055,1322.9292227699539,2,2022-12-29-2131,VBDM,2021.2.0,59.77743665115159,
1_AF1567_AF395,left,left,1.6248905999818817,1,1324.9272695999825,1326.6624879700016,2,2022-12-29-2131,VBDM,2021.2.0,59.77743665115159,
2_AF722_AF1738,left,left,1.112542700022459,1,1328.659616800025,1329.8955175700016,2,2022-12-29-2131,VBDM,2021.2.0,59.77743665115159,
4_AF1396_AF2006,right,right,1.3327197000617161,1,1331.8936730999267,1333.2788523700206,2,2022-12-29-2131,VBDM,2021.2.0,59.77743665115159,
2_AF2008_AF1821,left,left,1.3342109000077471,1,1335.2977738999762,1336.745350669988,2,2022-12-29-2131,VBDM,2021.2.0,59.77743665115159,
1_AF1284_AF1162,right,right,1.8671395999845117,1,1338.770031400025,1340.7289699699381,2,2022-12-29-2131,VBDM,2021.2.0,59.77743665115159,
2_AF1846_AF2005,left,left,1.6383583000861108,1,1342.7259475999745,1344.4454239699176,2,2022-12-29-2131,VBDM,2021.2.0,59.77743665115159,
1_AF1197_AF1371,right,left,1.1626536000985652,0,1346.4419367000228,1347.7121403699625,2,2022-12-29-2131,VBDM,2021.2.0,59.77743665115159,
1_AF1336_AF1584,right,right,1.9348049000836909,1,1349.7104894999648,1351.7454911700102,2,2022-12-29-2131,VBDM,2021.2.0,59.77743665115159,
1_AF1584_AF409,left,left,1.8634056999580935,1,1353.7439399999566,1355.7122535700096,2,2022-12-29-2131,VBDM,2021.2.0,59.77743665115159,
2_AF1328_AF2010,right,right,1.526555799995549,1,1357.710545299924,1359.345589269919,2,2022-12-29-2131,VBDM,2021.2.0,59.77743665115159,
4_AF1090_AF1272,left,left,1.3285329999634996,1,1361.3431517999852,1362.7788298699656,2,2022-12-29-2131,VBDM,2021.2.0,59.77743665115159,
2_AF1456_AF1205,right,right,2.065238200011663,1,1364.775996399927,1366.9456838699175,2,2022-12-29-2131,VBDM,2021.2.0,59.77743665115159,
1_AF1821_AF1197,left,right,1.5360900999512523,0,1368.9436612999998,1370.5454377699994,2,2022-12-29-2131,VBDM,2021.2.0,59.77743665115159,
3_AF1659_AF1328,left,left,1.6565038000699133,1,1372.5423188999994,1374.3286869699718,2,2022-12-29-2131,VBDM,2021.2.0,59.77743665115159,
1_AF1335_AF1714,right,right,1.3530680000549182,1,1376.3259107000194,1377.7959208699526,2,2022-12-29-2131,VBDM,2021.2.0,59.77743665115159,
1_AF1546_AF1675,right,left,2.130079000024125,0,1379.7937605000334,1382.0126387699625,2,2022-12-29-2131,VBDM,2021.2.0,59.77743665115159,
1_AF1734_AF1684,right,right,2.373032100033015,1,1384.0124431999866,1386.5621196700145,2,2022-12-29-2131,VBDM,2021.2.0,59.77743665115159,
3_AF1714_AF398,left,left,0.9501785000320524,1,1388.5604277999373,1389.6123607699178,2,2022-12-29-2131,VBDM,2021.2.0,59.77743665115159,
1_AF1546_AF1699,right,right,1.3240811000578105,1,1391.6104909999995,1393.0287188699353,2,2022-12-29-2131,VBDM,2021.2.0,59.77743665115159,
1_AF1272_AF1689,right,left,1.9481796000618488,0,1395.0265681999736,1397.062062569929,2,2022-12-29-2131,VBDM,2021.2.0,59.77743665115159,
3_AF2_AF1405,right,right,1.959816199960187,1,1399.0593159999698,1401.1286777699484,2,2022-12-29-2131,VBDM,2021.2.0,59.77743665115159,
3_AF1551_AF2011,right,right,1.4452138999477029,1,1403.1301465999568,1404.662265569938,2,2022-12-29-2131,VBDM,2021.2.0,59.77743665115159,
1_AF2002_AF1419,left,left,1.7141197999008,1,1406.6644914000062,1408.4621108699707,2,2022-12-29-2131,VBDM,2021.2.0,59.77743665115159,
2_AF784_AF709,left,left,1.4047624999657273,1,1410.4605072999839,1411.945311969996,2,2022-12-29-2131,VBDM,2021.2.0,59.77743665115159,
1_AF2010_AF1734,left,left,2.5020196000114083,1,1413.9438536999514,1416.661902069964,2,2022-12-29-2131,VBDM,2021.2.0,59.77743665115159,
3_AF2011_AF881,left,left,1.536819199915044,1,1418.6601369000273,1420.3286190699205,2,2022-12-29-2131,VBDM,2021.2.0,59.77743665115159,
1_AF724_AF1977,right,right,2.4709266999270767,1,1445.396325699985,1447.9952720699716,2,2022-12-29-2131,VBDM,2021.2.0,59.77743665115159,
3_AF600_AF1837,right,right,1.2709267000900581,1,1449.9935805000132,1451.3454048700282,2,2022-12-29-2131,VBDM,2021.2.0,59.77743665115159,
2_AF1560_AF1284,left,left,1.752873899997212,1,1453.3420847000089,1455.2120130699245,2,2022-12-29-2131,VBDM,2021.2.0,59.77743665115159,
1_AF1647_AF2007,right,left,1.4576495999936014,0,1457.2154890999664,1458.7954184699688,2,2022-12-29-2131,VBDM,2021.2.0,59.77743665115159,
1_AF1658_AF1396,left,right,1.5742506000678986,0,1460.796520199976,1462.4618310699357,2,2022-12-29-2131,VBDM,2021.2.0,59.77743665115159,
3_AF244_AF1576,left,left,1.2872080999659374,1,1464.4598824999994,1465.828878269915,2,2022-12-29-2131,VBDM,2021.2.0,59.77743665115159,
4_AF2001_AF1366,left,left,1.2640287999529392,1,1467.8284111999674,1469.211960369989,2,2022-12-29-2131,VBDM,2021.2.0,59.77743665115159,
1_AF1499_AF395,right,right,1.849404799984768,1,1471.2087495999876,1473.1450153700193,2,2022-12-29-2131,VBDM,2021.2.0,59.77743665115159,
2_AF1532_AF1712,right,right,2.5372166000306606,1,1475.1428853999823,1477.7616426699446,2,2022-12-29-2131,VBDM,2021.2.0,59.77743665115159,
2_AF1720_AF2011,right,left,2.38997030002065,0,1479.7610097000143,1482.19478346993,2,2022-12-29-2131,VBDM,2021.2.0,59.77743665115159,
2_AF1284_AF722,right,right,1.459586999961175,1,1484.192174899974,1485.7797184699798,2,2022-12-29-2131,VBDM,2021.2.0,59.77743665115159,
3_AF1499_AF1714,right,right,1.158375500002876,1,1487.7779123999644,1489.0118105699426,2,2022-12-29-2131,VBDM,2021.2.0,59.77743665115159,
1_AF1821_AF1638,right,left,2.351330599980429,0,1491.011376600014,1493.4956093699789,2,2022-12-29-2131,VBDM,2021.2.0,59.77743665115159,
1_AF1670_AF784,right,left,1.3054210999980569,0,1495.4933283999562,1496.9120739699924,2,2022-12-29-2131,VBDM,2021.2.0,59.77743665115159,
1_AF1663_AF1643,right,right,2.4260702000465244,1,1498.9142087999498,1501.5283367699362,2,2022-12-29-2131,VBDM,2021.2.0,59.77743665115159,
2_AF1637_AF1735,left,left,2.302254799986258,1,1503.5248841999564,1505.9454957699986,2,2022-12-29-2131,VBDM,2021.2.0,59.77743665115159,
3_AF1667_AF467,left,left,1.635796899907291,1,1507.9498350999784,1509.6787869700115,2,2022-12-29-2131,VBDM,2021.2.0,59.77743665115159,
1_AF1684_AF582,left,left,2.0631362999556586,1,1511.6765222999966,1513.8284638700193,2,2022-12-29-2131,VBDM,2021.2.0,59.77743665115159,
1_AF1527_AF1207,right,right,1.8359691000077873,1,1515.8257458999287,1517.778166069917,2,2022-12-29-2131,VBDM,2021.2.0,59.77743665115159,
2_AF1667_AF1663,left,left,1.2194177999626845,1,1519.7730089999968,1521.1117368699402,2,2022-12-29-2131,VBDM,2021.2.0,59.77743665115159,
1_AF1297_AF1643,right,left,2.11585840000771,0,1523.110268499935,1525.3283527699882,2,2022-12-29-2131,VBDM,2021.2.0,59.77743665115159,
4_AF1816_AF1366,left,right,0.6186718000099063,0,1527.326658200007,1527.97840107003,2,2022-12-29-2131,VBDM,2021.2.0,59.77743665115159,
1_AF1336_AF569,right,right,1.9216565999668092,1,1529.975399899995,1532.0282816699823,2,2022-12-29-2131,VBDM,2021.2.0,59.77743665115159,
2_AF1762_AF715,right,right,1.824173599947244,1,1534.0272405999713,1535.9282857699204,2,2022-12-29-2131,VBDM,2021.2.0,59.77743665115159,
2_AF510_AF569,right,right,1.4961670000338927,1,1537.9247940999921,1539.528460769949,2,2022-12-29-2131,VBDM,2021.2.0,59.77743665115159,
1_AF600_AF1647,right,right,1.2751839999109507,1,1541.5275740999496,1542.878493069939,2,2022-12-29-2131,VBDM,2021.2.0,59.77743665115159,
1_AF600_AF1336,right,left,2.653206399991177,0,1544.8753560000332,1547.6283702699352,2,2022-12-29-2131,VBDM,2021.2.0,59.77743665115159,
1_AF1065_AF2007,right,left,1.2867245000088587,0,1549.6321755999234,1551.0451441699756,2,2022-12-29-2131,VBDM,2021.2.0,59.77743665115159,
1_AF1647_AF1567,right,right,1.7581364000216126,1,1553.0439165999414,1554.8949656699901,2,2022-12-29-2131,VBDM,2021.2.0,59.77743665115159,
2_AF1779_AF1365,right,right,2.2752375000854954,1,1556.8938525000121,1560.2807026700234,2,2022-12-29-2131,VBDM,2021.2.0,59.77743665115159,
4_AF113_AF1090,right,right,2.6498734999913722,1,1562.279003100004,1565.0621604699759,2,2022-12-29-2131,VBDM,2021.2.0,59.77743665115159,
1_AF1162_AF398,left,left,1.8593717999756336,1,1567.0598309999332,1569.0619284699555,2,2022-12-29-2131,VBDM,2021.2.0,59.77743665115159,
2_AF636_AF1714,right,right,1.317853899905458,1,1571.0585593000287,1572.4948095699424,2,2022-12-29-2131,VBDM,2021.2.0,59.77743665115159,
2_AF1029_AF1326,left,left,1.623318300000392,1,1574.4942684000125,1576.2116707699956,2,2022-12-29-2131,VBDM,2021.2.0,59.77743665115159,
1_AF1647_AF1638,right,left,2.521837299922481,0,1578.2100336999865,1580.828439869953,2,2022-12-29-2131,VBDM,2021.2.0,59.77743665115159,
1_AF1284_AF1821,right,right,1.9175518000265583,1,1582.8259208999807,1584.8616357699852,2,2022-12-29-2131,VBDM,2021.2.0,59.77743665115159,
2_AF1499_AF2007,right,left,1.4026591000147164,0,1586.8664353999775,1588.4114084699308,2,2022-12-29-2131,VBDM,2021.2.0,59.77743665115159,
1_AF636_AF1551,left,left,1.5114684000145644,1,1590.408486200031,1592.0446810699418,2,2022-12-29-2131,VBDM,2021.2.0,59.77743665115159,
1_AF1402_AF1567,left,right,1.4647157000144944,0,1594.0412394999294,1595.6446499699146,2,2022-12-29-2131,VBDM,2021.2.0,59.77743665115159,
4_AF1090_AF2005,left,left,1.157016500015743,1,1597.6419564000098,1598.9619465700002,2,2022-12-29-2131,VBDM,2021.2.0,59.77743665115159,
2_AF1171_AF2005,left,left,1.2065946999937296,1,1600.9601650999393,1602.3116051699385,2,2022-12-29-2131,VBDM,2021.2.0,59.77743665115159,
1_AF932_AF1362,right,right,1.2337034000083804,1,1604.308733999962,1605.6617047699751,2,2022-12-29-2131,VBDM,2021.2.0,59.77743665115159,
1_AF1207_AF1154,right,right,1.5798147999448702,1,1607.6589840999804,1609.3448272699375,2,2022-12-29-2131,VBDM,2021.2.0,59.77743665115159,
3_AF2012_AF2008,right,right,1.7055316000478342,1,1611.3654031000333,1613.1949467700092,2,2022-12-29-2131,VBDM,2021.2.0,59.77743665115159,
2_AF1468_AF987,left,left,1.9036971000023186,1,1615.2108985999366,1617.2617530699704,2,2022-12-29-2131,VBDM,2021.2.0,59.77743665115159,
2_AF724_AF2,left,left,1.11480120010674,1,1619.2610065999907,1620.4281783699175,2,2022-12-29-2131,VBDM,2021.2.0,59.77743665115159,
3_AF1532_AF1637,right,left,1.9045402999036014,0,1622.4257631000364,1624.4611910699518,2,2022-12-29-2131,VBDM,2021.2.0,59.77743665115159,
3_AF1903_AF1203,left,right,2.5907231000019237,0,1626.4583406000165,1629.1114691699972,2,2022-12-29-2131,VBDM,2021.2.0,59.77743665115159,
1_AF1560_AF1821,left,left,2.1235326000023633,1,1631.1089680999285,1633.3782652699506,2,2022-12-29-2131,VBDM,2021.2.0,59.77743665115159,
2_AF1734_AF1402,right,right,1.6357124999631196,1,1635.3758612000383,1637.0946864700295,2,2022-12-29-2131,VBDM,2021.2.0,59.77743665115159,
2_AF1811_AF784,right,right,1.9172776999184862,1,1641.6953993999632,1643.711382970016,2,2022-12-29-2131,VBDM,2021.2.0,59.77743665115159,
1_AF1154_AF1205,right,left,1.8623736998997629,0,1645.7081577000208,1647.644876270008,2,2022-12-29-2131,VBDM,2021.2.0,59.77743665115159,
3_AF113_AF1405,right,right,1.1470139999873936,1,1649.641732399934,1650.8780070699636,2,2022-12-29-2131,VBDM,2021.2.0,59.77743665115159,
1_AF1712_AF987,left,right,1.4769773000152782,0,1652.8751800999744,1654.44467037,2,2022-12-29-2131,VBDM,2021.2.0,59.77743665115159,
2_AF1980_AF1468,right,right,1.374650300014764,1,1656.441865199944,1657.8946583699785,2,2022-12-29-2131,VBDM,2021.2.0,59.77743665115159,
3_AF1637_AF1366,left,left,1.1321480999467894,1,1659.8947981999954,1661.1111540699262,2,2022-12-29-2131,VBDM,2021.2.0,59.77743665115159,
3_AF2_AF244,right,right,1.8720357000129297,1,1663.1082331000362,1665.0613678699942,2,2022-12-29-2131,VBDM,2021.2.0,59.77743665115159,
3_AF1738_AF1789,right,right,1.581055000075139,1,1667.0584932999918,1668.7285113699386,2,2022-12-29-2131,VBDM,2021.2.0,59.77743665115159,
2_AF1560_AF1266,left,left,1.6045260999817401,1,1670.7255980999907,1672.4279061699403,2,2022-12-29-2131,VBDM,2021.2.0,59.77743665115159,
2_AF1203_AF1684,right,right,2.429720800020732,1,1674.430387899978,1676.9282408699278,2,2022-12-29-2131,VBDM,2021.2.0,59.77743665115159,
3_AF1284_AF1659,right,right,1.4254882999230176,1,1678.929938599933,1680.444681969972,2,2022-12-29-2131,VBDM,2021.2.0,59.77743665115159,
2_AF1684_AF1811,left,left,2.0213811000576243,1,1682.4440006000223,1684.5444511699375,2,2022-12-29-2131,VBDM,2021.2.0,59.77743665115159,
2_AF2008_AF1356,left,left,1.284759399946779,1,1686.562769799959,1687.8779942699825,2,2022-12-29-2131,VBDM,2021.2.0,59.77743665115159,
4_AF2001_AF1326,left,left,1.3024811999639496,1,1689.88363019994,1691.2612408700284,2,2022-12-29-2131,VBDM,2021.2.0,59.77743665115159,
3_AF1284_AF1977,right,right,1.3443232000572607,1,1693.2602579999948,1694.727879270015,2,2022-12-29-2131,VBDM,2021.2.0,59.77743665115159,
3_AF1903_AF1576,left,left,1.2499522999860346,1,1696.730247600004,1698.0614548699582,2,2022-12-29-2131,VBDM,2021.2.0,59.77743665115159,
2_AF2005_AF1669,right,right,1.1494187000207603,1,1700.0640617000172,1701.3111977699796,2,2022-12-29-2131,VBDM,2021.2.0,59.77743665115159,
1_AF1405_AF1966,left,left,2.1103510999819264,1,1703.3098504999653,1705.47813326997,2,2022-12-29-2131,VBDM,2021.2.0,59.77743665115159,
3_AF1903_AF881,left,left,1.3495469000190496,1,1707.4753961999668,1708.9117237700034,2,2022-12-29-2131,VBDM,2021.2.0,59.77743665115159,
1_AF1908_AF1335,right,right,2.282178799971007,1,1710.9083212999394,1713.2778861699976,2,2022-12-29-2131,VBDM,2021.2.0,59.77743665115159,
3_AF2009_AF1637,right,right,2.81231549999211,1,1715.2755102999508,1718.1276584699867,2,2022-12-29-2131,VBDM,2021.2.0,59.77743665115159,
2_AF1643_AF1811,left,left,1.8844565000617877,1,1720.125460900017,1722.09474507001,2,2022-12-29-2131,VBDM,2021.2.0,59.77743665115159,
3_AF1532_AF1667,right,right,1.2715510999551043,1,1724.0919225999387,1726.3444378699992,2,2022-12-29-2131,VBDM,2021.2.0,59.77743665115159,
3_AF1977_AF467,left,left,1.1994021999416873,1,1728.3425073999679,1729.5944057699876,2,2022-12-29-2131,VBDM,2021.2.0,59.77743665115159,
1_AF1834_AF1585,right,right,2.178863399894908,1,1731.5920216999948,1733.8611129699625,2,2022-12-29-2131,VBDM,2021.2.0,59.77743665115159,
4_AF2006_AF113,left,left,1.2474996999371797,1,1735.8601804999635,1737.1945453699796,2,2022-12-29-2131,VBDM,2021.2.0,59.77743665115159,
1_AF1821_AF300,right,right,1.5864321999251842,1,1739.1927768000169,1740.9775152699208,2,2022-12-29-2131,VBDM,2021.2.0,59.77743665115159,
2_AF1734_AF1977,right,right,1.2352243000641465,1,1742.9761879999423,1744.244511770003,2,2022-12-29-2131,VBDM,2021.2.0,59.77743665115159,
1_AF1813_AF1197,left,right,1.9151214000303298,0,1746.241776400013,1748.2111362700002,2,2022-12-29-2131,VBDM,2021.2.0,59.77743665115159,
1_AF1171_AF1663,left,left,1.6143953999271616,1,1750.2098744999385,1751.9112196700066,2,2022-12-29-2131,VBDM,2021.2.0,59.77743665115159,
3_AF1405_AF2005,left,left,0.875813000020571,1,1753.9092716999585,1754.8611990699196,2,2022-12-29-2131,VBDM,2021.2.0,59.77743665115159,
1_AF1456_AF1643,right,left,1.0697350000264123,0,1756.8602175000124,1758.011216069956,2,2022-12-29-2131,VBDM,2021.2.0,59.77743665115159,
1_AF1689_AF1328,left,left,1.222336299950257,1,1760.0069756000303,1761.3446666699951,2,2022-12-29-2131,VBDM,2021.2.0,59.77743665115159,
2_AF1825_AF600,left,left,1.2317755999974906,1,1763.3421297000023,1764.6779669699376,2,2022-12-29-2131,VBDM,2021.2.0,59.77743665115159,
1_AF1955_AF1637,right,left,1.7837197999469936,0,1766.6757253999822,1768.561127570027,2,2022-12-29-2131,VBDM,2021.2.0,59.77743665115159,
4_AF1326_AF1090,right,right,1.2391381999477744,1,1770.5581268999958,1771.861354769941,2,2022-12-29-2131,VBDM,2021.2.0,59.77743665115159,
1_AF1546_AF1272,left,left,1.403227899922058,1,1773.859610699932,1775.3283104700154,2,2022-12-29-2131,VBDM,2021.2.0,59.77743665115159,
1_AF600_AF1980,right,left,1.0931009000632912,0,1777.3262557999697,1778.4778636700125,2,2022-12-29-2131,VBDM,2021.2.0,59.77743665115159,
4_AF1816_AF881,left,left,2.66061419993639,1,1780.476217099931,1783.2112483699225,2,2022-12-29-2131,VBDM,2021.2.0,59.77743665115159,
2_AF1669_AF2,left,left,2.0069448000285774,1,1785.2098363999976,1787.2943909699447,2,2022-12-29-2131,VBDM,2021.2.0,59.77743665115159,
2_AF398_AF491,right,right,2.4936054999707267,1,1789.291797599988,1791.877795569983,2,2022-12-29-2131,VBDM,2021.2.0,59.77743665115159,
3_AF1667_AF1499,left,left,1.5562902999809012,1,1793.880813500029,1795.5111098699622,2,2022-12-29-2131,VBDM,2021.2.0,59.77743665115159,
3_AF1468_AF600,left,left,1.3853046000003815,1,1797.508785199956,1798.9779648699682,2,2022-12-29-2131,VBDM,2021.2.0,59.77743665115159,
1_AF1980_AF1585,right,right,1.2860813000006601,1,1800.9753524999833,1802.34421606994,2,2022-12-29-2131,VBDM,2021.2.0,59.77743665115159,
1_AF1560_AF1692,right,right,2.025039999978617,1,1804.3407197999768,1806.4776526699193,2,2022-12-29-2131,VBDM,2021.2.0,59.77743665115159,
2_AF1365_AF1456,left,right,3.0039524999447167,0,1808.476566300029,1811.5609867700027,2,2022-12-29-2131,VBDM,2021.2.0,59.77743665115159,
1_AF113_AF1297,right,right,1.6405353000154719,1,1813.5589698000113,1815.327698870015,2,2022-12-29-2131,VBDM,2021.2.0,59.77743665115159,
1_AF2014_AF2005,left,right,1.7141543000470847,0,1817.3343927999958,1819.0779540699791,2,2022-12-29-2131,VBDM,2021.2.0,59.77743665115159,
1_AF1832_AF1365,right,right,1.779377399943769,1,1821.0778283999534,1822.9109075699585,2,2022-12-29-2131,VBDM,2021.2.0,59.77743665115159,
1_AF433_AF1825,right,right,2.3600065999198705,1,1824.9078188999556,1827.3274742699346,2,2022-12-29-2131,VBDM,2021.2.0,59.77743665115159,
1_AF1561_AF2002,left,right,2.6206723999930546,0,1834.6450584999984,1837.3941617699224,2,2022-12-29-2131,VBDM,2021.2.0,59.77743665115159,
1_AF1638_AF987,left,left,1.5776325999759138,1,1839.393148800009,1841.0277482699953,2,2022-12-29-2131,VBDM,2021.2.0,59.77743665115159,
1_AF881_AF1434,right,left,1.844842000049539,0,1843.025527699967,1844.9608324700152,2,2022-12-29-2131,VBDM,2021.2.0,59.77743665115159,
1_AF1597_AF491,right,left,1.729821400018409,0,1846.9584922000067,1848.7609768699972,2,2022-12-29-2131,VBDM,2021.2.0,59.77743665115159,
3_AF1667_AF1366,left,left,1.0779195999493822,1,1850.7589593000012,1851.9274306699285,2,2022-12-29-2131,VBDM,2021.2.0,59.77743665115159,
2_AF2008_AF1371,left,left,1.4322431000182405,1,1853.9381762000266,1855.4446053699708,2,2022-12-29-2131,VBDM,2021.2.0,59.77743665115159,
2_AF2010_AF1366,left,left,1.553814799990505,1,1857.4483476999449,1859.0608509700164,2,2022-12-29-2131,VBDM,2021.2.0,59.77743665115159,
3_AF2009_AF1365,right,right,1.4363125000381842,1,1861.058763399953,1862.5777121699998,2,2022-12-29-2131,VBDM,2021.2.0,59.77743665115159,
1_AF1908_AF1825,right,left,1.5268348000245169,0,1864.576061300002,1866.1776714700159,2,2022-12-29-2131,VBDM,2021.2.0,59.77743665115159,
2_AF1527_AF1955,right,right,2.976543400087394,1,1868.1754458999494,1871.2442179699779,2,2022-12-29-2131,VBDM,2021.2.0,59.77743665115159,
2_AF1966_AF2004,left,left,1.4590343999443576,1,1873.2464679999975,1874.7941949699657,2,2022-12-29-2131,VBDM,2021.2.0,59.77743665115159,
3_AF1656_AF1326,left,left,1.2331160999601707,1,1876.7940080999397,1878.110992569977,2,2022-12-29-2131,VBDM,2021.2.0,59.77743665115159,
4_AF2001_AF600,left,left,1.1582441999344155,1,1880.1101227999898,1881.3440659699613,2,2022-12-29-2131,VBDM,2021.2.0,59.77743665115159,
1_AF1755_AF1336,left,left,2.242902099969797,1,1883.3455140999286,1885.610608769965,2,2022-12-29-2131,VBDM,2021.2.0,59.77743665115159,
1_AF1638_AF1468,right,right,1.0615276000462472,1,1887.608817399945,1888.7270769699594,2,2022-12-29-2131,VBDM,2021.2.0,59.77743665115159,
4_AF1419_AF2006,right,right,1.2993595999432728,1,1890.7239606999792,1892.127155569999,2,2022-12-29-2131,VBDM,2021.2.0,59.77743665115159,
1_AF709_AF1356,right,right,2.0768001000396907,1,1894.1248555999482,1896.3106891699485,2,2022-12-29-2131,VBDM,2021.2.0,59.77743665115159,
2_AF1798_AF1812,right,right,1.208474500104785,1,1898.3079673999455,1899.5441224699957,2,2022-12-29-2131,VBDM,2021.2.0,59.77743665115159,
2_AF1603_AF1669,right,right,1.6955154000315815,1,1901.5417390000075,1903.3275161700208,2,2022-12-29-2131,VBDM,2021.2.0,59.77743665115159,
4_AF1816_AF709,left,left,2.0408609000733122,1,1905.325558200013,1907.527170270018,2,2022-12-29-2131,VBDM,2021.2.0,59.77743665115159,
2_AF1811_AF1955,right,right,1.4205501000396907,1,1909.5249480999773,1910.9940083700117,2,2022-12-29-2131,VBDM,2021.2.0,59.77743665115159,
2_AF1560_AF1603,left,left,1.830106700072065,1,1912.9928169000195,1914.8608011699166,2,2022-12-29-2131,VBDM,2021.2.0,59.77743665115159,
2_AF454_AF1812,right,right,1.137517699971795,1,1916.8586320999311,1918.1275303699426,2,2022-12-29-2131,VBDM,2021.2.0,59.77743665115159,
1_AF1813_AF1738,left,left,1.4574359999969602,1,1920.1246862999396,1921.6605779700099,2,2022-12-29-2131,VBDM,2021.2.0,59.77743665115159,
1_AF1675_AF1821,left,left,1.2162754000164568,1,1923.6576900000218,1924.9774114699453,2,2022-12-29-2131,VBDM,2021.2.0,59.77743665115159,
3_AF398_AF244,right,right,1.4321711999364197,1,1926.9746312999632,1928.4444716700004,2,2022-12-29-2131,VBDM,2021.2.0,59.77743665115159,
1_AF433_AF1675,right,right,2.1420730999670923,1,1930.4425606000004,1932.6773553699372,2,2022-12-29-2131,VBDM,2021.2.0,59.77743665115159,
2_AF1908_AF1501,right,right,1.4264654000289738,1,1934.6751919999951,1936.1939497699846,2,2022-12-29-2131,VBDM,2021.2.0,59.77743665115159,
1_AF1825_AF1065,left,left,1.2480590000050142,1,1938.1913774999557,1939.510893169942,2,2022-12-29-2131,VBDM,2021.2.0,59.77743665115159,
3_AF1402_AF2012,left,left,1.7276690000435337,1,1941.5140881999396,1943.2938792700065,2,2022-12-29-2131,VBDM,2021.2.0,59.77743665115159,
1_AF1561_AF1065,left,left,1.2781092999503016,1,1945.2924834999721,1946.6606928699534,2,2022-12-29-2131,VBDM,2021.2.0,59.77743665115159,
3_AF1365_AF1499,left,left,1.7605400999309495,1,1948.657794800005,1950.4938346699696,2,2022-12-29-2131,VBDM,2021.2.0,59.77743665115159,
2_AF1402_AF1162,left,left,1.725827099988237,1,1952.4910627999343,1954.277345869958,2,2022-12-29-2131,VBDM,2021.2.0,59.77743665115159,
2_AF1712_AF1738,left,left,2.1788353000301868,1,1956.2745250000153,1958.5439214699786,2,2022-12-29-2131,VBDM,2021.2.0,59.77743665115159,
1_AF1689_AF1203,left,right,2.582615099963732,0,1960.5419929999625,1963.1607933700202,2,2022-12-29-2131,VBDM,2021.2.0,59.77743665115159,
2_AF1205_AF409,left,left,1.6259608000982553,1,1965.1590864999453,1966.8941121700104,2,2022-12-29-2131,VBDM,2021.2.0,59.77743665115159,
1_AF2011_AF1585,left,left,1.0969550999579951,1,1968.8995549000101,1970.0774858700229,2,2022-12-29-2131,VBDM,2021.2.0,59.77743665115159,
2_AF2012_AF724,right,right,1.4027191000059247,1,1972.0809351999778,1973.5938740700135,2,2022-12-29-2131,VBDM,2021.2.0,59.77743665115159,
1_AF1362_AF724,right,right,2.0391017000656575,1,1975.5970455999486,1977.6938601700008,2,2022-12-29-2131,VBDM,2021.2.0,59.77743665115159,
1_AF582_AF1203,left,left,2.6411236999556422,1,1979.690860999981,1982.444018269924,2,2022-12-29-2131,VBDM,2021.2.0,59.77743665115159,
1_AF1712_AF2014,left,right,2.6104593999916688,0,1984.4469627999933,1987.1272220699234,2,2022-12-29-2131,VBDM,2021.2.0,59.77743665115159,
3_AF593_AF2008,right,right,1.3297906999941915,1,1989.140395800001,1990.560441069922,2,2022-12-29-2131,VBDM,2021.2.0,59.77743665115159,
2_AF433_AF1977,right,right,1.9651779000414535,1,1992.564542899956,1994.5770676699817,2,2022-12-29-2131,VBDM,2021.2.0,59.77743665115159,
3_AF2011_AF2,left,left,1.2651179999811575,1,1996.577674799948,1997.9112990700291,2,2022-12-29-2131,VBDM,2021.2.0,59.77743665115159,
3_AF1714_AF1396,left,left,1.9389160999562591,1,1999.9097393000266,2001.9603793699412,2,2022-12-29-2131,VBDM,2021.2.0,59.77743665115159,
2_AF881_AF1643,right,right,2.2357656999956816,1,2003.9636485000374,2006.2938592699707,2,2022-12-29-2131,VBDM,2021.2.0,59.77743665115159,
2_AF1966_AF1328,left,left,1.0641812999965623,1,2008.2914292999776,2009.4438622700168,2,2022-12-29-2131,VBDM,2021.2.0,59.77743665115159,
1_AF1669_AF636,left,left,1.1412958999862894,1,2011.4466226999648,2012.660843469936,2,2022-12-29-2131,VBDM,2021.2.0,59.77743665115159,
1_AF639_AF1789,right,right,1.5661702000070363,1,2014.6587268000003,2016.3104966699962,2,2022-12-29-2131,VBDM,2021.2.0,59.77743665115159,
4_AF1816_AF1272,left,left,1.3369028000161052,1,2018.3083307000343,2019.7437704699464,2,2022-12-29-2131,VBDM,2021.2.0,59.77743665115159,
1_AF433_AF1419,left,left,2.593202200019732,1,2048.9440462000202,2051.5770655699657,2,2022-12-29-2131,VBDM,2021.2.0,59.77743665115159,
3_AF1977_AF1266,left,left,1.6447574000339955,1,2053.574553699931,2055.293835670024,2,2022-12-29-2131,VBDM,2021.2.0,59.77743665115159,
2_AF491_AF1326,left,left,1.2745440000435337,1,2057.290905699949,2058.6272227699287,2,2022-12-29-2131,VBDM,2021.2.0,59.77743665115159,
1_AF1762_AF1689,right,left,0.9242058000527322,0,2060.62491220003,2061.593592769967,2,2022-12-29-2131,VBDM,2021.2.0,59.77743665115159,
1_AF1828_AF932,left,left,1.506022399989888,1,2063.590635700035,2065.1934801700177,2,2022-12-29-2131,VBDM,2021.2.0,59.77743665115159,
1_AF300_AF1336,left,left,1.5290048000169918,1,2067.190485600033,2068.810166269925,2,2022-12-29-2131,VBDM,2021.2.0,59.77743665115159,
2_AF1532_AF962,right,left,2.523268699995242,0,2070.8083584000124,2073.360249170021,2,2022-12-29-2131,VBDM,2021.2.0,59.77743665115159,
1_AF395_AF1603,left,left,2.7055680999765173,1,2075.357733599958,2078.143651769997,2,2022-12-29-2131,VBDM,2021.2.0,59.77743665115159,
2_AF1811_AF1171,right,right,1.5528342999750748,1,2080.1424291000003,2081.76005336995,2,2022-12-29-2131,VBDM,2021.2.0,59.77743665115159,
3_AF1419_AF1714,right,right,1.0931835999945179,1,2083.757602000027,2084.926878369914,2,2022-12-29-2131,VBDM,2021.2.0,59.77743665115159,
4_AF1090_AF1738,left,left,1.7671131999231875,1,2086.924371800036,2088.7434321699316,2,2022-12-29-2131,VBDM,2021.2.0,59.77743665115159,
1_AF1712_AF1813,left,right,2.2452934000175446,0,2090.746722699958,2093.060007269995,2,2022-12-29-2131,VBDM,2021.2.0,59.77743665115159,
2_AF1546_AF1903,right,left,2.6223301000427455,0,2095.056302999961,2097.760334069992,2,2022-12-29-2131,VBDM,2021.2.0,59.77743665115159,
2_AF1738_AF1643,right,right,1.7533994000405073,1,2099.7576145000057,2101.5933497699793,2,2022-12-29-2131,VBDM,2021.2.0,59.77743665115159,
1_AF1197_AF1597,right,right,1.9555720000062138,1,2103.589960500016,2105.6105451699464,2,2022-12-29-2131,VBDM,2021.2.0,59.77743665115159,
4_AF1396_AF1090,right,right,1.814533400000073,1,2107.607991299941,2109.5438116699574,2,2022-12-29-2131,VBDM,2021.2.0,59.77743665115159,
4_AF2004_AF1090,right,right,1.5371731000486761,1,2111.5467193999793,2113.126975370024,2,2022-12-29-2131,VBDM,2021.2.0,59.77743665115159,
2_AF1366_AF569,right,right,0.9139186000684276,1,2115.131588999997,2116.1603542699363,2,2022-12-29-2131,VBDM,2021.2.0,59.77743665115159,
3_AF685_AF1266,left,left,2.0879618999315426,1,2118.157864299952,2120.293589870015,2,2022-12-29-2131,VBDM,2021.2.0,59.77743665115159,
3_AF932_AF1903,right,right,1.5691295000724494,1,2122.2918673999375,2123.8936703700224,2,2022-12-29-2131,VBDM,2021.2.0,59.77743665115159,
1_AF1832_AF1205,right,right,1.6079289999324828,1,2125.891496299999,2127.593630170019,2,2022-12-29-2131,VBDM,2021.2.0,59.77743665115159,
2_AF1813_AF1205,right,right,2.443255600053817,1,2129.5924355000025,2132.077101170004,2,2022-12-29-2131,VBDM,2021.2.0,59.77743665115159,
3_AF2008_AF1326,left,left,1.608451700070873,1,2134.093252499937,2135.743565570016,2,2022-12-29-2131,VBDM,2021.2.0,59.77743665115159,
2_AF1065_AF244,right,right,1.3762526999926195,1,2137.7463584999787,2139.159979369992,2,2022-12-29-2131,VBDM,2021.2.0,59.77743665115159,
2_AF1825_AF113,left,left,2.0764687000773847,1,2141.1572769000195,2143.2767308699317,2,2022-12-29-2131,VBDM,2021.2.0,59.77743665115159,
2_AF1148_AF398,left,right,2.1136167999356985,0,2145.275237899972,2147.410092469922,2,2022-12-29-2131,VBDM,2021.2.0,59.77743665115159,
3_AF1714_AF1798,left,left,1.6044278999324888,1,2149.407979200012,2151.076535470004,2,2022-12-29-2131,VBDM,2021.2.0,59.77743665115159,
2_AF1903_AF582,left,left,2.0930675000417978,1,2153.07479340001,2155.210150669946,2,2022-12-29-2131,VBDM,2021.2.0,59.77743665115159,
2_AF1846_AF932,left,left,2.150889900047332,1,2157.2089548000367,2159.3766769699637,2,2022-12-29-2131,VBDM,2021.2.0,59.77743665115159,
1_AF2005_AF1207,right,right,1.6780728000449017,1,2161.3773824999807,2163.110268369934,2,2022-12-29-2131,VBDM,2021.2.0,59.77743665115159,
1_AF1812_AF1647,left,right,1.0749231000663713,0,2165.1087331000017,2166.2433157699766,2,2022-12-29-2131,VBDM,2021.2.0,59.77743665115159,
1_AF1980_AF1148,right,right,2.246092600049451,1,2168.241855200031,2170.5265618699254,2,2022-12-29-2131,VBDM,2021.2.0,59.77743665115159,
1_AF1813_AF967,right,right,2.3741155999014154,1,2172.524658999988,2174.943595669966,2,2022-12-29-2131,VBDM,2021.2.0,59.77743665115159,
1_AF1779_AF569,right,right,1.1798624000512064,1,2176.941582600004,2178.2101703699796,2,2022-12-29-2131,VBDM,2021.2.0,59.77743665115159,
2_AF1205_AF1647,left,left,1.7919261999195442,1,2180.21003680001,2182.0765377700213,2,2022-12-29-2131,VBDM,2021.2.0,59.77743665115159,
2_AF897_AF1532,left,left,1.2624370000557974,1,2184.075281700003,2185.39323406996,2,2022-12-29-2131,VBDM,2021.2.0,59.77743665115159,
1_AF1738_AF1689,right,right,1.4133077999576926,1,2187.390116799972,2188.843195369968,2,2022-12-29-2131,VBDM,2021.2.0,59.77743665115159,
3_AF1692_AF2009,left,left,1.772422399953939,1,2190.841163199977,2192.6932525699144,2,2022-12-29-2131,VBDM,2021.2.0,59.77743665115159,
1_AF1755_AF1720,left,left,2.294589300057851,1,2194.691541200038,2197.0433283700027,2,2022-12-29-2131,VBDM,2021.2.0,59.77743665115159,
1_AF1955_AF1205,right,right,2.550909500103444,1,2199.041096000001,2201.64345816992,2,2022-12-29-2131,VBDM,2021.2.0,59.77743665115159,
1_AF2005_AF1734,right,left,1.8657992000225931,0,2203.642052799929,2205.576721470023,2,2022-12-29-2131,VBDM,2021.2.0,59.77743665115159,
4_AF2006_AF2009,left,left,1.307215999928303,1,2207.5754298999673,2208.9268404699746,2,2022-12-29-2131,VBDM,2021.2.0,59.77743665115159,
1_AF1735_AF1825,right,right,1.4952189999166876,1,2210.925743400003,2212.4768634699635,2,2022-12-29-2131,VBDM,2021.2.0,59.77743665115159,
1_AF1270_AF1365,right,right,1.9387063999893144,1,2214.474444399937,2216.4431982699666,2,2022-12-29-2131,VBDM,2021.2.0,59.77743665115159,
2_AF724_AF1266,left,left,1.3244676999747753,1,2218.440554699977,2219.843231070007,2,2022-12-29-2131,VBDM,2021.2.0,59.77743665115159,
1_AF2010_AF2014,left,left,1.0964592000236735,1,2221.848124500015,2223.0269208699815,2,2022-12-29-2131,VBDM,2021.2.0,59.77743665115159,
1_AF1955_AF1903,right,left,1.8030754000646994,0,2225.0263194999425,2226.8764913699474,2,2022-12-29-2131,VBDM,2021.2.0,59.77743665115159,
1_AF1551_AF1456,right,right,1.7497066999785602,1,2228.8753200999927,2230.693010669935,2,2022-12-29-2131,VBDM,2021.2.0,59.77743665115159,
2_AF1667_AF1546,left,right,1.1671936999773607,0,2232.6902200999903,2233.909723270021,2,2022-12-29-2131,VBDM,2021.2.0,59.77743665115159,
3_AF1272_AF1501,right,right,1.27276379999239,1,2235.907131899963,2237.226579770015,2,2022-12-29-2131,VBDM,2021.2.0,59.77743665115159,
2_AF565_AF600,left,left,1.6698733000084758,1,2240.893886899925,2242.6096909699613,2,2022-12-29-2131,VBDM,2021.2.0,59.77743665115159,
1_AF1584_AF1356,left,left,1.0712003000080585,1,2244.6067653000355,2245.7431131699473,2,2022-12-29-2131,VBDM,2021.2.0,59.77743665115159,
1_AF1597_AF593,left,left,1.267537200008519,1,2247.7410638999427,2249.0933006699547,2,2022-12-29-2131,VBDM,2021.2.0,59.77743665115159,
4_AF2006_AF1272,left,left,1.2231285999296233,1,2251.0940252,2252.3599225699786,2,2022-12-29-2131,VBDM,2021.2.0,59.77743665115159,
1_AF1675_AF582,left,left,1.3780994999688119,1,2254.357520999969,2256.560044869932,2,2022-12-29-2131,VBDM,2021.2.0,59.77743665115159,
1_AF1365_AF1561,left,left,1.9845468999119475,1,2258.5570186999394,2260.5931966699777,2,2022-12-29-2131,VBDM,2021.2.0,59.77743665115159,
3_AF1659_AF510,left,left,1.537530199973844,1,2262.5911475999746,2264.19293746996,2,2022-12-29-2131,VBDM,2021.2.0,59.77743665115159,
1_AF1162_AF1762,left,right,2.2601096999133006,0,2266.189510999946,2268.4930566699827,2,2022-12-29-2131,VBDM,2021.2.0,59.77743665115159,
4_AF2006_AF2012,left,left,1.287670399993658,1,2270.4976115999743,2271.843211469974,2,2022-12-29-2131,VBDM,2021.2.0,59.77743665115159,
2_AF2007_AF709,left,left,1.2377149000531062,1,2273.8471835999517,2275.143572569976,2,2022-12-29-2131,VBDM,2021.2.0,59.77743665115159,
2_AF784_AF600,left,left,3.771165700047277,1,2277.151034999988,2281.009822469938,2,2022-12-29-2131,VBDM,2021.2.0,59.77743665115159,
2_AF1779_AF1656,right,right,2.180637300014496,1,2283.0081786999945,2285.2429921699572,2,2022-12-29-2131,VBDM,2021.2.0,59.77743665115159,
3_AF1659_AF454,left,left,1.0158546000020579,1,2287.240253099939,2288.309803169954,2,2022-12-29-2131,VBDM,2021.2.0,59.77743665115159,
4_AF510_AF2006,right,right,1.3516074999934062,1,2290.3098954999587,2291.7931794699166,2,2022-12-29-2131,VBDM,2021.2.0,59.77743665115159,
1_AF1837_AF962,left,left,1.1537392999744043,1,2293.7910136999562,2295.043138769956,2,2022-12-29-2131,VBDM,2021.2.0,59.77743665115159,
2_AF1669_AF1284,left,left,1.5187481000320986,1,2297.041224699933,2298.609798369964,2,2022-12-29-2131,VBDM,2021.2.0,59.77743665115159,
1_AF1585_AF1362,left,left,1.6562668998958543,1,2300.606477799942,2302.3099751699833,2,2022-12-29-2131,VBDM,2021.2.0,59.77743665115159,
2_AF1567_AF113,left,left,1.306683300063014,1,2304.307816699962,2305.693335769966,2,2022-12-29-2131,VBDM,2021.2.0,59.77743665115159,
1_AF1527_AF1375,right,right,1.1139370000455528,1,2307.6909510999685,2308.859596569941,2,2022-12-29-2131,VBDM,2021.2.0,59.77743665115159,
2_AF1065_AF2008,right,right,1.2671810000902042,1,2310.884362199926,2312.19309166997,2,2022-12-29-2131,VBDM,2021.2.0,59.77743665115159,
2_AF987_AF1205,right,right,1.4869780000299215,1,2314.1969645000063,2315.7264805699583,2,2022-12-29-2131,VBDM,2021.2.0,59.77743665115159,
3_AF1903_AF1396,left,left,1.2099966999376193,1,2317.723434699932,2318.993281069945,2,2022-12-29-2131,VBDM,2021.2.0,59.77743665115159,
1_AF113_AF1689,right,right,0.9848025999963284,1,2320.9915628000163,2322.043052569998,2,2022-12-29-2131,VBDM,2021.2.0,59.77743665115159,
2_AF1162_AF1903,right,left,1.6631890999851748,0,2324.04054419999,2325.7261498700013,2,2022-12-29-2131,VBDM,2021.2.0,59.77743665115159,
3_AF1326_AF2011,right,right,1.4374627999495715,1,2327.7238863999955,2329.2430613700185,2,2022-12-29-2131,VBDM,2021.2.0,59.77743665115159,
3_AF1977_AF1762,left,left,2.9362562999594957,1,2331.2423526999773,2334.226373369957,2,2022-12-29-2131,VBDM,2021.2.0,59.77743665115159,
2_AF1561_AF881,left,left,2.6302462000166997,1,2336.2298375000246,2338.92670226997,2,2022-12-29-2131,VBDM,2021.2.0,59.77743665115159,
4_AF1816_AF1326,left,left,1.2545155000407249,1,2340.9271175999893,2342.243112869945,2,2022-12-29-2131,VBDM,2021.2.0,59.77743665115159,
1_AF1699_AF1828,left,right,2.075190700008534,0,2344.2397875000024,2346.4097541700235,2,2022-12-29-2131,VBDM,2021.2.0,59.77743665115159,
3_AF1006_AF1405,right,right,1.6054109999677166,1,2348.406966199982,2350.042721769924,2,2022-12-29-2131,VBDM,2021.2.0,59.77743665115159,
1_AF897_AF1659,right,left,2.073823699960485,0,2352.040984299965,2354.1761686699815,2,2022-12-29-2131,VBDM,2021.2.0,59.77743665115159,
2_AF433_AF1789,right,right,2.243991700001061,1,2356.1744232999627,2358.4932607700234,2,2022-12-29-2131,VBDM,2021.2.0,59.77743665115159,
2_AF2014_AF1365,right,right,1.218633700045757,1,2360.5012364999857,2361.793179769919,2,2022-12-29-2131,VBDM,2021.2.0,59.77743665115159,
1_AF2002_AF1825,right,left,1.791557400021702,0,2363.8135371999815,2365.6598078699667,2,2022-12-29-2131,VBDM,2021.2.0,59.77743665115159,
4_AF959_AF2001,right,right,1.0719131999649107,1,2367.6673534000292,2368.8430060699234,2,2022-12-29-2131,VBDM,2021.2.0,59.77743665115159,
1_AF1663_AF1396,left,right,1.9638826999580488,0,2370.8412140000146,2372.8429450699246,2,2022-12-29-2131,VBDM,2021.2.0,59.77743665115159,
3_AF2011_AF398,left,left,1.6915655999910086,1,2374.848543399945,2376.6263327700203,2,2022-12-29-2131,VBDM,2021.2.0,59.77743665115159,
3_AF1468_AF1576,left,left,1.4859313000924885,1,2378.6247411000077,2380.1431238699356,2,2022-12-29-2131,VBDM,2021.2.0,59.77743665115159,
2_AF912_AF1714,right,right,1.089971899986267,1,2382.140731599997,2383.326535770006,2,2022-12-29-2131,VBDM,2021.2.0,59.77743665115159,
4_AF1576_AF2006,right,right,1.546919299988076,1,2385.3279118000064,2386.9428057700047,2,2022-12-29-2131,VBDM,2021.2.0,59.77743665115159,
3_AF1205_AF1419,left,left,2.487969300011173,1,2388.9406365000177,2391.476413969917,2,2022-12-29-2131,VBDM,2021.2.0,59.77743665115159,
2_AF1647_AF1402,right,right,3.0332902000518516,1,2393.4741142999846,2396.5425697699307,2,2022-12-29-2131,VBDM,2021.2.0,59.77743665115159,
4_AF2001_AF881,left,left,1.1959859000053257,1,2398.5428352999734,2399.7928339699633,2,2022-12-29-2131,VBDM,2021.2.0,59.77743665115159,
2_AF1762_AF1825,right,left,2.679888700018637,0,2401.7902301999275,2404.5594275700046,2,2022-12-29-2131,VBDM,2021.2.0,59.77743665115159,
1_AF784_AF1789,right,right,1.8056009999709204,1,2406.5596150000347,2408.4261461699266,2,2022-12-29-2131,VBDM,2021.2.0,59.77743665115159,
1_AF1720_AF1675,right,right,1.9711926999734715,1,2410.428470099927,2412.476355069934,2,2022-12-29-2131,VBDM,2021.2.0,59.77743665115159,
2_AF1738_AF897,right,right,2.32094300002791,1,2414.473397499998,2416.8762033699663,2,2022-12-29-2131,VBDM,2021.2.0,59.77743665115159,
4_AF1197_AF1090,right,right,1.2490205001085997,1,2418.873707499937,2420.1760332699982,2,2022-12-29-2131,VBDM,2021.2.0,59.77743665115159,
1_AF1779_AF1396,left,left,1.6409621000057086,1,2422.1733578999992,2423.893047069933,2,2022-12-29-2131,VBDM,2021.2.0,59.77743665115159,
3_AF1501_AF881,left,left,0.9503099999856204,1,2425.8930186999496,2426.9426151699504,2,2022-12-29-2131,VBDM,2021.2.0,59.77743665115159,
4_AF1499_AF2001,right,right,1.4064638999989256,1,2430.0270676999353,2431.4927126699245,2,2022-12-29-2131,VBDM,2021.2.0,59.77743665115159,
1_AF1846_AF1362,left,right,1.6470770000014454,0,2433.4904026000295,2435.1593090700103,2,2022-12-29-2131,VBDM,2021.2.0,59.77743665115159,
4_AF1798_AF1090,right,right,1.2511759999906644,1,2437.1567690999946,2438.459202769946,2,2022-12-29-2131,VBDM,2021.2.0,59.77743665115159,
2_AF1659_AF1720,left,left,1.3578189000254497,1,2440.456080300035,2441.859394269914,2,2022-12-29-2131,VBDM,2021.2.0,59.77743665115159,
3_AF2008_AF1551,left,left,1.3397883999859914,1,2443.878806499997,2445.259318969946,2,2022-12-29-2131,VBDM,2021.2.0,59.77743665115159,
2_AF1551_AF784,right,right,1.099300800007768,1,2447.2844766000053,2448.475916269969,2,2022-12-29-2131,VBDM,2021.2.0,59.77743665115159,
3_AF1501_AF1396,left,left,0.893221199978143,1,2450.4749966999516,2451.476025969989,2,2022-12-29-2131,VBDM,2021.2.0,59.77743665115159,
1_AF867_AF1065,left,left,1.0976721999468282,1,2453.4731561000226,2454.6426786699217,2,2022-12-29-2131,VBDM,2021.2.0,59.77743665115159,
1_AF2012_AF1663,right,left,1.113282199949026,0,2456.645809300011,2457.7758766699467,2,2022-12-29-2131,VBDM,2021.2.0,59.77743665115159,
3_AF1659_AF398,left,left,0.9472865000134334,1,2459.774261099985,2460.7761879699888,2,2022-12-29-2131,VBDM,2021.2.0,59.77743665115159,
3_AF1667_AF1006,left,left,1.4576124000595883,1,2462.7741918999236,2464.292581870023,2,2022-12-29-2131,VBDM,2021.2.0,59.77743665115159,
1_AF1656_AF2007,left,left,1.1773384000407532,1,2466.294103699969,2467.5093962699525,2,2022-12-29-2131,VBDM,2021.2.0,59.77743665115159,
4_AF1816_AF510,left,left,1.157874200027436,1,2469.509118499933,2470.7259239700275,2,2022-12-29-2131,VBDM,2021.2.0,59.77743665115159,
1_AF1755_AF1405,right,right,3.275827700039372,1,2472.723327899934,2476.026062169962,2,2022-12-29-2131,VBDM,2021.2.0,59.77743665115159,
2_AF1171_AF932,left,left,2.1300695999525487,1,2478.023923999979,2480.1755212699413,2,2022-12-29-2131,VBDM,2021.2.0,59.77743665115159,
1_AF1006_AF912,right,right,1.8864646999863908,1,2482.1727542999433,2484.209517770016,2,2022-12-29-2131,VBDM,2021.2.0,59.77743665115159,
1_AF1456_AF1366,left,left,1.368041600100696,1,2486.2107426000293,2487.625875669916,2,2022-12-29-2131,VBDM,2021.2.0,59.77743665115159,
3_AF1468_AF1326,left,left,1.384397300076671,1,2489.6221939999377,2491.075939770008,2,2022-12-29-2131,VBDM,2021.2.0,59.77743665115159,
3_AF1659_AF2012,left,left,1.1898261999012902,1,2493.079413300031,2494.325968369993,2,2022-12-29-2131,VBDM,2021.2.0,59.77743665115159,
1_AF1813_AF1955,right,right,1.7027001000242308,1,2496.324726599967,2498.0595047700103,2,2022-12-29-2131,VBDM,2021.2.0,59.77743665115159,
2_AF1738_AF967,right,right,1.6225382999982685,1,2500.056926799938,2501.74263217001,2,2022-12-29-2131,VBDM,2021.2.0,59.77743665115159,
4_AF1738_AF1816,right,right,1.1115899999858811,1,2503.7408530999674,2505.409556569916,2,2022-12-29-2131,VBDM,2021.2.0,59.77743665115159,
3_AF932_AF1692,right,right,1.3452123999595642,1,2507.4069843000034,2508.859335469932,2,2022-12-29-2131,VBDM,2021.2.0,59.77743665115159,
1_AF398_AF2014,right,left,1.9548588000470772,0,2510.8617758000037,2512.9090771699907,2,2022-12-29-2131,VBDM,2021.2.0,59.77743665115159,
1_AF1966_AF1207,left,right,1.1429878999479115,0,2514.9074520999566,2516.092617969995,2,2022-12-29-2131,VBDM,2021.2.0,59.77743665115159,
2_AF1532_AF1564,right,right,1.800319799920544,1,2518.0896815999877,2519.909280270024,2,2022-12-29-2131,VBDM,2021.2.0,59.77743665115159,
3_AF1903_AF593,left,left,1.8887028000317514,1,2521.908662599977,2523.875935770024,2,2022-12-29-2131,VBDM,2021.2.0,59.77743665115159,
3_AF2009_AF1656,right,right,1.1848123000236228,1,2525.875526699936,2527.092519269942,2,2022-12-29-2131,VBDM,2021.2.0,59.77743665115159,
1_AF1434_AF1955,right,right,1.309038900071755,1,2529.0899126000004,2530.4758613700164,2,2022-12-29-2131,VBDM,2021.2.0,59.77743665115159,
1_AF1207_AF784,right,left,1.2922299000201747,0,2532.473978599999,2533.859093369951,2,2022-12-29-2131,VBDM,2021.2.0,59.77743665115159,
1_AF1501_AF1755,left,left,1.3051921000005677,1,2535.8574960000115,2537.2588623699617,2,2022-12-29-2131,VBDM,2021.2.0,59.77743665115159,
3_AF244_AF1006,left,left,1.2664741999469697,1,2539.2564213000005,2540.5594457700267,2,2022-12-29-2131,VBDM,2021.2.0,59.77743665115159,
3_AF2011_AF1284,left,left,2.747144200024195,1,2542.5600676999893,2545.342317769921,2,2022-12-29-2131,VBDM,2021.2.0,59.77743665115159,
1_AF1272_AF1658,right,left,2.497043199953623,0,2547.340669599944,2549.875729669968,2,2022-12-29-2131,VBDM,2021.2.0,59.77743665115159,
3_AF244_AF1798,left,left,0.9278867999091744,1,2551.8731254999293,2552.8424593699515,2,2022-12-29-2131,VBDM,2021.2.0,59.77743665115159,
2_AF967_AF2012,left,right,1.9513531000120565,0,2554.8463430999545,2556.8588647699567,2,2022-12-29-2131,VBDM,2021.2.0,59.77743665115159,
4_AF1090_AF1576,left,left,1.1957716000033543,1,2558.8562362999655,2560.1422925700085,2,2022-12-29-2131,VBDM,2021.2.0,59.77743665115159,
4_AF2001_AF1576,left,left,1.2186982999555767,1,2562.142079500016,2563.4257437700057,2,2022-12-29-2131,VBDM,2021.2.0,59.77743665115159,
2_AF1669_AF467,left,left,1.9708487000316381,1,2565.422954599955,2567.4422426700244,2,2022-12-29-2131,VBDM,2021.2.0,59.77743665115159,
2_AF1546_AF685,right,left,2.1313805000390857,0,2569.4408914999804,2571.6089008699987,2,2022-12-29-2131,VBDM,2021.2.0,59.77743665115159,
4_AF1532_AF2006,right,right,1.8797320999437943,1,2573.60840789997,2575.542294769932,2,2022-12-29-2131,VBDM,2021.2.0,59.77743665115159,
1_AF433_AF565,right,right,2.343004700029269,1,2577.540163400001,2579.9589583699476,2,2022-12-29-2131,VBDM,2021.2.0,59.77743665115159,
1_AF1813_AF1335,right,right,2.5128132000099868,1,2581.9608299999963,2584.525751369924,2,2022-12-29-2131,VBDM,2021.2.0,59.77743665115159,
1_AF1966_AF1658,left,left,1.6159730999497697,1,2586.5247686000075,2588.1755560699735,2,2022-12-29-2131,VBDM,2021.2.0,59.77743665115159,
1_AF1336_AF1197,left,right,2.0173468000721186,0,2590.1726638999535,2592.242019570002,2,2022-12-29-2131,VBDM,2021.2.0,59.77743665115159,
3_AF1656_AF1551,left,left,1.370470599969849,1,2594.240389399929,2595.658927070012,2,2022-12-29-2131,VBDM,2021.2.0,59.77743665115159,
1_AF1670_AF1270,right,right,2.1992966999532655,1,2597.6561676999554,2599.908855269931,2,2022-12-29-2131,VBDM,2021.2.0,59.77743665115159,
1_AF244_AF784,left,left,1.3706579999998212,1,2601.906536699971,2603.3256349700155,2,2022-12-29-2131,VBDM,2021.2.0,59.77743665115159,
3_AF1714_AF959,left,left,1.4236634999979287,1,2605.3233162999386,2606.8594106699225,2,2022-12-29-2131,VBDM,2021.2.0,59.77743665115159,
2_AF962_AF2004,left,right,1.2999090000521392,0,2608.8615356000373,2610.2253265700188,2,2022-12-29-2131,VBDM,2021.2.0,59.77743665115159,
1_AF1670_AF932,left,left,1.5455313000129536,1,2618.7933060999494,2620.3921922699433,2,2022-12-29-2131,VBDM,2021.2.0,59.77743665115159,
4_AF1396_AF1816,right,right,1.2528300000121817,1,2622.389882599935,2623.6754097700236,2,2022-12-29-2131,VBDM,2021.2.0,59.77743665115159,
3_AF2008_AF1203,left,right,1.4905935999704525,0,2625.6882751999656,2627.2254554699525,2,2022-12-29-2131,VBDM,2021.2.0,59.77743665115159,
4_AF1816_AF1284,left,left,1.2449265000177547,1,2629.226847099955,2630.492039769923,2,2022-12-29-2131,VBDM,2021.2.0,59.77743665115159,
1_AF962_AF1402,right,right,1.1412973999977112,1,2632.489290599944,2633.725479770021,2,2022-12-29-2131,VBDM,2021.2.0,59.77743665115159,
2_AF1171_AF2012,left,left,2.112837400054559,1,2635.7293015000178,2637.9926526699332,2,2022-12-29-2131,VBDM,2021.2.0,59.77743665115159,
3_AF2004_AF1667,right,right,1.7041880999458954,1,2639.995666999952,2641.725498269929,2,2022-12-29-2131,VBDM,2021.2.0,59.77743665115159,
2_AF867_AF1197,left,right,1.0130459999199957,0,2643.7236972999526,2644.7758821699886,2,2022-12-29-2131,VBDM,2021.2.0,59.77743665115159,
1_AF1834_AF398,left,right,2.1357622999930754,0,2646.7733273999766,2648.9753100700095,2,2022-12-29-2131,VBDM,2021.2.0,59.77743665115159,
2_AF1405_AF1597,left,left,1.0075736000435427,1,2650.975427599973,2652.041941669921,2,2022-12-29-2131,VBDM,2021.2.0,59.77743665115159,
1_AF1699_AF1735,left,right,1.0536990999244153,0,2654.039829800022,2655.17532756998,2,2022-12-29-2131,VBDM,2021.2.0,59.77743665115159,
4_AF1272_AF2001,right,right,1.1081987000070512,1,2657.1748855999904,2658.325243769947,2,2022-12-29-2131,VBDM,2021.2.0,59.77743665115159,
1_AF1297_AF1811,left,left,1.1447189999744296,1,2660.3246444000397,2661.5589455699433,2,2022-12-29-2131,VBDM,2021.2.0,59.77743665115159,
1_AF1006_AF1813,right,right,2.2716119000688195,1,2663.563409599941,2665.858645269915,2,2022-12-29-2131,VBDM,2021.2.0,59.77743665115159,
1_AF409_AF1567,right,right,1.695779100060463,1,2667.8588732000208,2669.6588749699645,2,2022-12-29-2131,VBDM,2021.2.0,59.77743665115159,
2_AF409_AF244,right,right,1.565568899968639,1,2671.6566353000235,2673.29189826994,2,2022-12-29-2131,VBDM,2021.2.0,59.77743665115159,
2_AF897_AF1328,left,left,1.1494787000119686,1,2675.2895570999244,2676.4918792699814,2,2022-12-29-2131,VBDM,2021.2.0,59.77743665115159,
2_AF1162_AF1837,right,right,1.0572085999883711,1,2678.4893236999633,2679.575223970029,2,2022-12-29-2131,VBDM,2021.2.0,59.77743665115159,
2_AF2012_AF1560,right,left,1.4657227999996394,0,2681.583767300006,2683.1422261699686,2,2022-12-29-2131,VBDM,2021.2.0,59.77743665115159,
1_AF1297_AF1006,left,left,0.8960991000058129,1,2685.143879899988,2686.0757716700086,2,2022-12-29-2131,VBDM,2021.2.0,59.77743665115159,
1_AF1266_AF1734,right,left,1.1999359000474215,0,2688.07293689996,2689.3417145699846,2,2022-12-29-2131,VBDM,2021.2.0,59.77743665115159,
3_AF1977_AF709,left,left,1.2112376000732183,1,2691.340016799979,2692.6088366699755,2,2022-12-29-2131,VBDM,2021.2.0,59.77743665115159,
1_AF1647_AF709,left,left,1.0332867000252008,1,2694.6058527999558,2695.7085587699316,2,2022-12-29-2131,VBDM,2021.2.0,59.77743665115159,
1_AF1689_AF1006,left,right,1.293898900039494,0,2697.705928499927,2699.0589228700032,2,2022-12-29-2131,VBDM,2021.2.0,59.77743665115159,
3_AF2004_AF685,right,right,1.733199100010097,1,2701.062477099942,2702.8423578699935,2,2022-12-29-2131,VBDM,2021.2.0,59.77743665115159,
2_AF1567_AF398,left,left,1.067106100032106,1,2704.842119699926,2705.992191469914,2,2022-12-29-2131,VBDM,2021.2.0,59.77743665115159,
3_AF1272_AF1656,right,right,1.2566384999081492,1,2707.9902817999246,2709.3087937699515,2,2022-12-29-2131,VBDM,2021.2.0,59.77743665115159,
2_AF569_AF1527,left,left,1.1950518001103774,1,2711.3050183999585,2712.57532977002,2,2022-12-29-2131,VBDM,2021.2.0,59.77743665115159,
2_AF1551_AF491,right,right,1.128311299951747,1,2714.574141799938,2715.7586733699195,2,2022-12-29-2131,VBDM,2021.2.0,59.77743665115159,
4_AF2012_AF1816,right,right,1.155955099966377,1,2717.762047600001,2718.9919789699256,2,2022-12-29-2131,VBDM,2021.2.0,59.77743665115159,
1_AF1468_AF1675,left,right,2.312203799956478,0,2720.9924245999428,2723.3283369699843,2,2022-12-29-2131,VBDM,2021.2.0,59.77743665115159,
1_AF113_AF1356,right,right,1.7226334000006318,1,2725.3268569000065,2727.091759169975,2,2022-12-29-2131,VBDM,2021.2.0,59.77743665115159,
1_AF1670_AF565,right,left,3.1142173999687657,0,2729.0884798000334,2732.25868657002,2,2022-12-29-2131,VBDM,2021.2.0,59.77743665115159,
3_AF1659_AF1326,left,left,1.2770162000088021,1,2734.256365799927,2735.608473870007,2,2022-12-29-2131,VBDM,2021.2.0,59.77743665115159,
2_AF244_AF2002,left,left,1.5074984999373555,1,2737.611090200022,2739.1922981699813,2,2022-12-29-2131,VBDM,2021.2.0,59.77743665115159,
2_AF433_AF1501,right,right,1.6733505999436602,1,2741.1953932000324,2742.958361769945,2,2022-12-29-2131,VBDM,2021.2.0,59.77743665115159,
2_AF1834_AF685,right,right,1.5357030000304803,1,2744.955299400026,2746.608803669957,2,2022-12-29-2131,VBDM,2021.2.0,59.77743665115159,
3_AF1468_AF1272,left,left,1.326926299952902,1,2748.607332299929,2749.9920249699267,2,2022-12-29-2131,VBDM,2021.2.0,59.77743665115159,
2_AF2008_AF1720,left,left,1.8732986999675632,1,2752.004778899951,2753.925350169919,2,2022-12-29-2131,VBDM,2021.2.0,59.77743665115159,
1_AF1980_AF1532,left,left,2.0504278999287635,1,2755.9459218999837,2758.0583796699416,2,2022-12-29-2131,VBDM,2021.2.0,59.77743665115159,
3_AF1006_AF1501,right,right,0.7387194000184536,1,2760.056048600003,2760.8916368700216,2,2022-12-29-2131,VBDM,2021.2.0,59.77743665115159,
3_AF467_AF1714,right,right,0.9497946999035776,1,2762.8887055999367,2763.892261670006,2,2022-12-29-2131,VBDM,2021.2.0,59.77743665115159,
1_AF1154_AF1734,left,left,1.0561812000814825,1,2765.8886344999773,2767.008517970017,2,2022-12-29-2131,VBDM,2021.2.0,59.77743665115159,
3_AF1365_AF2005,left,left,1.3351688999682665,1,2769.007307299995,2770.4086038699957,2,2022-12-29-2131,VBDM,2021.2.0,59.77743665115159,
2_AF1812_AF881,left,left,1.7282672999426723,1,2772.407753599924,2774.2252925699927,2,2022-12-29-2131,VBDM,2021.2.0,59.77743665115159,
1_AF1205_AF1684,left,right,1.2812069000210613,0,2776.2235720999306,2777.59150647003,2,2022-12-29-2131,VBDM,2021.2.0,59.77743665115159,
1_AF1336_AF1335,right,right,1.9196189999347553,1,2779.5885906999465,2781.558376569918,2,2022-12-29-2131,VBDM,2021.2.0,59.77743665115159,
2_AF1402_AF1065,left,left,1.433291699970141,1,2783.562021999969,2785.0415950699594,2,2022-12-29-2131,VBDM,2021.2.0,59.77743665115159,
1_AF1675_AF1456,left,left,2.375614700024016,1,2787.0449955000076,2790.308184369968,2,2022-12-29-2131,VBDM,2021.2.0,59.77743665115159,
2_AF959_AF491,right,right,1.6388186999829486,1,2792.306010099943,2794.0252508699546,2,2022-12-29-2131,VBDM,2021.2.0,59.77743665115159,
1_AF1846_AF1336,left,left,1.3419775000074878,1,2805.825770700001,2807.208543369931,2,2022-12-29-2131,VBDM,2021.2.0,59.77743665115159,
1_AF1284_AF1663,right,right,1.359465999994427,1,2809.206359499949,2810.6084975699546,2,2022-12-29-2131,VBDM,2021.2.0,59.77743665115159,
1_AF1171_AF244,right,right,1.2289430000819266,1,2812.6054473000113,2813.8753895699397,2,2022-12-29-2131,VBDM,2021.2.0,59.77743665115159,
1_AF2010_AF1837,right,right,1.1931515000760555,1,2815.874218599987,2817.108332069975,2,2022-12-29-2131,VBDM,2021.2.0,59.77743665115159,
3_AF454_AF2008,right,right,1.0056191000621766,1,2819.127921200008,2820.1754767699517,2,2022-12-29-2131,VBDM,2021.2.0,59.77743665115159,
4_AF2006_AF2005,left,left,0.9520320000592619,1,2822.1834222000325,2823.175283169991,2,2022-12-29-2131,VBDM,2021.2.0,59.77743665115159,
2_AF1658_AF244,right,right,0.7982843000208959,1,2825.173394399928,2826.05808896994,2,2022-12-29-2131,VBDM,2021.2.0,59.77743665115159,
1_AF1272_AF1663,right,right,1.2523562000133097,1,2828.0556459999643,2829.3587471699925,2,2022-12-29-2131,VBDM,2021.2.0,59.77743665115159,
2_AF1335_AF932,left,left,0.7561453999951482,1,2831.356435499969,2832.192075569916,2,2022-12-29-2131,VBDM,2021.2.0,59.77743665115159,
3_AF1405_AF1272,left,left,1.222885200055316,1,2834.18846450001,2835.441467569943,2,2022-12-29-2131,VBDM,2021.2.0,59.77743665115159,
1_AF1065_AF1966,right,right,1.2823098000371829,1,2837.4380098999245,2838.77475706992,2,2022-12-29-2131,VBDM,2021.2.0,59.77743665115159,
2_AF1689_AF1468,right,right,1.014481300022453,1,2840.7726167000365,2841.841512469959,2,2022-12-29-2131,VBDM,2021.2.0,59.77743665115159,
1_AF1834_AF1499,left,left,1.179926500073634,1,2843.8397967999335,2845.041448970011,2,2022-12-29-2131,VBDM,2021.2.0,59.77743665115159,
2_AF593_AF1712,right,left,1.310741399996914,0,2847.0401895999676,2848.4582405699534,2,2022-12-29-2131,VBDM,2021.2.0,59.77743665115159,
4_AF2001_AF1419,left,left,1.1260358999716118,1,2850.456879699952,2851.658082769986,2,2022-12-29-2131,VBDM,2021.2.0,59.77743665115159,
2_AF1561_AF1284,left,left,1.4221060000127181,1,2853.6628601999255,2855.175342069974,2,2022-12-29-2131,VBDM,2021.2.0,59.77743665115159,
3_AF1205_AF1551,left,left,1.1361830999376252,1,2857.1728326999582,2858.358287769987,2,2022-12-29-2131,VBDM,2021.2.0,59.77743665115159,
1_AF467_AF1065,right,[],[],None,2860.3554611,2862.3747982699774,2,2022-12-29-2131,VBDM,2021.2.0,59.77743665115159,
2_AF2_AF1171,right,right,1.312000999925658,1,2864.3718087000307,2865.741651469993,2,2022-12-29-2131,VBDM,2021.2.0,59.77743665115159,
2_AF1546_AF1837,right,right,1.0052273999899626,1,2867.738928099978,2868.841379469994,2,2022-12-29-2131,VBDM,2021.2.0,59.77743665115159,
2_AF1326_AF1171,right,right,1.3146196000743657,1,2870.83989199996,2872.207921569969,2,2022-12-29-2131,VBDM,2021.2.0,59.77743665115159,
1_AF639_AF1670,left,left,1.2346786999842152,1,2874.204630799941,2875.4914928699495,2,2022-12-29-2131,VBDM,2021.2.0,59.77743665115159,
2_AF2_AF300,right,right,0.8644225000170991,1,2877.4899469999364,2878.4248071699753,2,2022-12-29-2131,VBDM,2021.2.0,59.77743665115159,
2_AF1813_AF1714,right,right,0.7612940999679267,1,2880.4266613000073,2881.25839347,2,2022-12-29-2131,VBDM,2021.2.0,59.77743665115159,
1_AF715_AF1546,left,left,1.170558899990283,1,2883.2556276000105,2884.49171747003,2,2022-12-29-2131,VBDM,2021.2.0,59.77743665115159,
4_AF1816_AF398,left,left,1.041188900009729,1,2886.4893895999994,2887.5916852699943,2,2022-12-29-2131,VBDM,2021.2.0,59.77743665115159,
1_AF1828_AF1499,left,left,1.129804400028661,1,2889.5886311000213,2890.7916406699574,2,2022-12-29-2131,VBDM,2021.2.0,59.77743665115159,
2_AF433_AF1468,right,right,0.9658218000549823,1,2892.789124600007,2893.791322169977,2,2022-12-29-2131,VBDM,2021.2.0,59.77743665115159,
4_AF1328_AF1090,right,right,0.8810070999898016,1,2895.7918143999996,2896.7247628699174,2,2022-12-29-2131,VBDM,2021.2.0,59.77743665115159,
1_AF2007_AF1735,left,right,1.3931991000426933,0,2898.7291892999783,2900.174918870011,2,2022-12-29-2131,VBDM,2021.2.0,59.77743665115159,
3_AF1977_AF1576,left,left,1.1348976999288425,1,2902.175354899955,2903.3748327700073,2,2022-12-29-2131,VBDM,2021.2.0,59.77743665115159,
1_AF2010_AF1779,left,right,1.771087099914439,0,2905.379820500035,2907.241628969938,2,2022-12-29-2131,VBDM,2021.2.0,59.77743665115159,
4_AF2006_AF959,left,left,1.678137099952437,1,2909.238815199933,2910.97516336994,2,2022-12-29-2131,VBDM,2021.2.0,59.77743665115159,
1_AF1029_AF1647,left,right,1.2496097000548616,0,2912.974066899973,2914.274668269942,2,2022-12-29-2131,VBDM,2021.2.0,59.77743665115159,
2_AF2009_AF1699,right,right,1.2501185999717563,1,2916.2732817999786,2917.575039170019,2,2022-12-29-2131,VBDM,2021.2.0,59.77743665115159,
3_AF1527_AF1501,right,right,0.8381306999363005,1,2919.573096600012,2920.441419569927,2,2022-12-29-2131,VBDM,2021.2.0,59.77743665115159,
2_AF1597_AF1837,right,right,0.9540867999894544,1,2922.438712900039,2923.4413513699897,2,2022-12-29-2131,VBDM,2021.2.0,59.77743665115159,
1_AF932_AF2014,right,right,1.0445067000109702,1,2925.449834499974,2926.558292069973,2,2022-12-29-2131,VBDM,2021.2.0,59.77743665115159,
3_AF113_AF2011,right,right,1.2471910000313073,1,2928.5623525999254,2929.875139970018,2,2022-12-29-2131,VBDM,2021.2.0,59.77743665115159,
1_AF600_AF1456,right,right,0.8611631001112983,1,2931.8810279000318,2932.841423369979,2,2022-12-29-2131,VBDM,2021.2.0,59.77743665115159,
3_AF1272_AF1903,right,right,1.1199450000422075,1,2934.839722399949,2936.008223169984,2,2022-12-29-2131,VBDM,2021.2.0,59.77743665115159,
4_AF1090_AF2009,left,left,1.04965409997385,1,2938.0067511999514,2939.124888869969,2,2022-12-29-2131,VBDM,2021.2.0,59.77743665115159,
1_AF1832_AF1297,left,right,0.7466966999927536,0,2941.131125899963,2941.974613869947,2,2022-12-29-2131,VBDM,2021.2.0,59.77743665115159,
2_AF1637_AF1828,left,right,0.8445502000395209,0,2943.972672999953,2944.907836569974,2,2022-12-29-2131,VBDM,2021.2.0,59.77743665115159,
2_AF1335_AF2,left,left,1.0682934001088142,1,2946.9051795999985,2948.0080616699183,2,2022-12-29-2131,VBDM,2021.2.0,59.77743665115159,
1_AF1955_AF409,left,left,1.1473594999406487,1,2950.006193500012,2951.241621169995,2,2022-12-29-2131,VBDM,2021.2.0,59.77743665115159,
4_AF2001_AF1738,left,left,1.019003099994734,1,2953.240573899937,2954.3080871699262,2,2022-12-29-2131,VBDM,2021.2.0,59.77743665115159,
1_AF1908_AF1846,right,right,1.3794691000366583,1,2956.307457500021,2957.7243592699874,2,2022-12-29-2131,VBDM,2021.2.0,59.77743665115159,
3_AF685_AF1527,left,left,1.0693395999260247,1,2959.722178100026,2960.9079930700013,2,2022-12-29-2131,VBDM,2021.2.0,59.77743665115159,
1_AF1813_AF1366,left,left,1.1256020000437275,1,2962.9057919000043,2964.057746770012,2,2022-12-29-2131,VBDM,2021.2.0,59.77743665115159,
1_AF715_AF1468,right,[],[],None,3024.841430300032,3026.841533670004,2,2022-12-29-2131,VBDM,2021.2.0,59.77743665115159,
2_AF2005_AF1684,right,right,1.0051187999779359,1,3028.8430758999893,3029.9080173699535,2,2022-12-29-2131,VBDM,2021.2.0,59.77743665115159,
1_AF1148_AF1205,right,right,1.1248844999354333,1,3031.908127499977,3033.1075265700115,2,2022-12-29-2131,VBDM,2021.2.0,59.77743665115159,
1_AF1171_AF1734,left,left,0.9518266000086442,1,3035.1042317999527,3036.1078239699477,2,2022-12-29-2131,VBDM,2021.2.0,59.77743665115159,
1_AF715_AF1980,left,left,0.9832138000056148,1,3038.1050110999495,3039.1409607699957,2,2022-12-29-2131,VBDM,2021.2.0,59.77743665115159,
1_AF1789_AF2010,left,left,1.472118900041096,1,3041.1385671999305,3042.7076746699518,2,2022-12-29-2131,VBDM,2021.2.0,59.77743665115159,
2_AF2011_AF987,left,left,1.1054734999779612,1,3044.708146299934,3045.874349069933,2,2022-12-29-2131,VBDM,2021.2.0,59.77743665115159,
2_AF1328_AF1560,right,[],[],None,3047.8719950999366,3049.891446869972,2,2022-12-29-2131,VBDM,2021.2.0,59.77743665115159,
3_AF1551_AF1714,right,right,0.8033071999670938,1,3051.8894131999696,3052.7248500699993,2,2022-12-29-2131,VBDM,2021.2.0,59.77743665115159,
4_AF1816_AF2,left,left,0.8055121999932453,1,3054.722095199977,3055.6079157699482,2,2022-12-29-2131,VBDM,2021.2.0,59.77743665115159,
1_AF1977_AF569,left,left,1.3712661999743432,1,3057.6051382999867,3059.041005870013,2,2022-12-29-2131,VBDM,2021.2.0,59.77743665115159,
3_AF454_AF685,right,right,0.8710712000029162,1,3061.0386278999504,3062.0076745699976,2,2022-12-29-2131,VBDM,2021.2.0,59.77743665115159,
4_AF2006_AF1203,left,left,0.988154000020586,1,3064.0064589999383,3065.057636769989,2,2022-12-29-2131,VBDM,2021.2.0,59.77743665115159,
4_AF1090_AF1366,left,left,0.7135466000763699,1,3067.056421599933,3067.8244291699143,2,2022-12-29-2131,VBDM,2021.2.0,59.77743665115159,
2_AF1356_AF1692,right,right,0.9047393000219017,1,3069.8257817999693,3070.8078936699662,2,2022-12-29-2131,VBDM,2021.2.0,59.77743665115159,
3_AF1789_AF113,left,left,0.7751161999767646,1,3072.805549599929,3073.6575175699895,2,2022-12-29-2131,VBDM,2021.2.0,59.77743665115159,
3_AF1326_AF1501,right,right,0.609969999990426,1,3075.65439349995,3076.3745976699634,2,2022-12-29-2131,VBDM,2021.2.0,59.77743665115159,
1_AF1720_AF1154,right,right,0.7335689999163151,1,3078.372364199953,3079.2078919699766,2,2022-12-29-2131,VBDM,2021.2.0,59.77743665115159,
2_AF1499_AF1712,right,right,1.20271560002584,1,3081.2054990000324,3082.507921870018,2,2022-12-29-2131,VBDM,2021.2.0,59.77743665115159,
1_AF1297_AF709,left,left,0.8939786000410095,1,3084.504674099968,3085.474450269982,2,2022-12-29-2131,VBDM,2021.2.0,59.77743665115159,
4_AF1816_AF454,left,left,0.9130033999681473,1,3087.472445399966,3088.49118976997,2,2022-12-29-2131,VBDM,2021.2.0,59.77743665115159,
1_AF2014_AF1148,right,right,1.2545756000326946,1,3090.4971412000014,3091.8412655699417,2,2022-12-29-2131,VBDM,2021.2.0,59.77743665115159,
1_AF2004_AF1779,right,left,1.2282650000415742,0,3093.8463617999805,3095.1578865700053,2,2022-12-29-2131,VBDM,2021.2.0,59.77743665115159,
3_AF1789_AF1197,left,left,1.1256157999159768,1,3097.158969799988,3098.341275470017,2,2022-12-29-2131,VBDM,2021.2.0,59.77743665115159,
1_AF1064_AF244,right,right,1.4179157000035048,1,3100.339610200026,3101.824511469959,2,2022-12-29-2131,VBDM,2021.2.0,59.77743665115159,
1_AF565_AF1667,right,right,1.0541867000283673,1,3103.823679000023,3104.957640869927,2,2022-12-29-2131,VBDM,2021.2.0,59.77743665115159,
2_AF1658_AF1667,right,right,1.0583877000026405,1,3106.9548647999763,3108.107372970006,2,2022-12-29-2131,VBDM,2021.2.0,59.77743665115159,
4_AF1816_AF1203,left,left,1.2981274999910966,1,3110.1046228000196,3111.4748030699907,2,2022-12-29-2131,VBDM,2021.2.0,59.77743665115159,
1_AF1846_AF1597,left,right,1.6203074000077322,0,3113.472020999994,3115.174419669935,2,2022-12-29-2131,VBDM,2021.2.0,59.77743665115159,
2_AF912_AF685,right,right,1.176784300012514,1,3117.1713040999603,3118.4241054699874,2,2022-12-29-2131,VBDM,2021.2.0,59.77743665115159,
2_AF2005_AF1335,right,right,1.4650638999883085,1,3120.4225163999945,3121.9408125699615,2,2022-12-29-2131,VBDM,2021.2.0,59.77743665115159,
3_AF1811_AF1468,right,right,0.8880481000524014,1,3123.9391660999972,3124.9074391699746,2,2022-12-29-2131,VBDM,2021.2.0,59.77743665115159,
2_AF1335_AF467,left,right,1.8530845999484882,0,3126.904839899973,3128.8577005699394,2,2022-12-29-2131,VBDM,2021.2.0,59.77743665115159,
2_AF491_AF1499,left,right,1.3075687000527978,0,3130.8557732999325,3132.2241229699343,2,2022-12-29-2131,VBDM,2021.2.0,59.77743665115159,
2_AF1656_AF1735,left,left,0.8251901000039652,1,3134.223673200002,3135.207750369946,2,2022-12-29-2131,VBDM,2021.2.0,59.77743665115159,
1_AF1647_AF639,right,left,1.5286696999100968,0,3137.2042451000307,3138.8240352699418,2,2022-12-29-2131,VBDM,2021.2.0,59.77743665115159,
4_AF2004_AF2006,right,right,1.279000399983488,1,3140.831760399975,3142.174496469938,2,2022-12-29-2131,VBDM,2021.2.0,59.77743665115159,
2_AF1405_AF1356,left,left,1.0911371000111103,1,3144.1734107999364,3145.324220069952,2,2022-12-29-2131,VBDM,2021.2.0,59.77743665115159,
2_AF593_AF1171,right,right,1.2886810000054538,1,3147.3219157999847,3148.707487969927,2,2022-12-29-2131,VBDM,2021.2.0,59.77743665115159,
1_AF962_AF1779,left,right,1.3552601999836043,0,3150.7057533999905,3152.1408982699854,2,2022-12-29-2131,VBDM,2021.2.0,59.77743665115159,
1_AF1468_AF1561,left,[],[],None,3154.1385981999338,3156.15755217002,2,2022-12-29-2131,VBDM,2021.2.0,59.77743665115159,
1_AF593_AF1336,right,left,1.3683195000048727,0,3158.156164099928,3159.573929069948,2,2022-12-29-2131,VBDM,2021.2.0,59.77743665115159,
2_AF1584_AF1203,left,left,1.0581140998983756,1,3161.570743600023,3162.740773569944,2,2022-12-29-2131,VBDM,2021.2.0,59.77743665115159,
1_AF639_AF987,left,left,1.1143014999106526,1,3164.738760599983,3165.9242051699316,2,2022-12-29-2131,VBDM,2021.2.0,59.77743665115159,
3_AF510_AF1405,right,right,1.1109100999310613,1,3167.9227715999587,3169.107266870013,2,2022-12-29-2131,VBDM,2021.2.0,59.77743665115159,
2_AF1812_AF1811,left,left,1.2830646000802517,1,3171.103706700029,3172.457764069934,2,2022-12-29-2131,VBDM,2021.2.0,59.77743665115159,
4_AF2001_AF1328,left,left,1.0191619000397623,1,3174.456791399978,3175.540714070003,2,2022-12-29-2131,VBDM,2021.2.0,59.77743665115159,
1_AF881_AF1546,right,right,1.4091072999872267,1,3177.537853799993,3179.023929770023,2,2022-12-29-2131,VBDM,2021.2.0,59.77743665115159,
3_AF2012_AF1789,right,right,1.647654899978079,1,3181.028810699936,3182.7244163699565,2,2022-12-29-2131,VBDM,2021.2.0,59.77743665115159,
2_AF1326_AF569,right,right,1.1633126999950036,1,3184.721966599929,3185.9740554700024,2,2022-12-29-2131,VBDM,2021.2.0,59.77743665115159,
1_AF467_AF1813,right,right,1.4915792000247166,1,3222.8411135999486,3224.407496069942,2,2022-12-29-2131,VBDM,2021.2.0,59.77743665115159,
1_AF2011_AF1584,left,left,1.219885400030762,1,3226.4057216999354,3227.690463769983,2,2022-12-29-2131,VBDM,2021.2.0,59.77743665115159,
2_AF715_AF600,left,left,1.1319398999912664,1,3229.688657199964,3230.840726370027,2,2022-12-29-2131,VBDM,2021.2.0,59.77743665115159,
2_AF881_AF639,right,left,1.1244970000116155,0,3232.8386864999775,3234.0073287699256,2,2022-12-29-2131,VBDM,2021.2.0,59.77743665115159,
1_AF1532_AF1779,right,right,0.8450223000254482,1,3236.004679400008,3236.923828669975,2,2022-12-29-2131,VBDM,2021.2.0,59.77743665115159,
1_AF1396_AF1980,right,right,1.7691434998996556,1,3238.9220580999972,3240.7743047699682,2,2022-12-29-2131,VBDM,2021.2.0,59.77743665115159,
1_AF1375_AF1171,right,right,0.9951823999872431,1,3242.771756000002,3243.8239562699223,2,2022-12-29-2131,VBDM,2021.2.0,59.77743665115159,
4_AF1527_AF2001,right,right,0.77653479995206,1,3245.82326450001,3246.67392497001,2,2022-12-29-2131,VBDM,2021.2.0,59.77743665115159,
1_AF1171_AF1656,right,right,0.7952280000317842,1,3248.671275999979,3249.524059869966,2,2022-12-29-2131,VBDM,2021.2.0,59.77743665115159,
1_AF1362_AF1366,left,left,0.8989389999769628,1,3251.521667800029,3252.5072674699245,2,2022-12-29-2131,VBDM,2021.2.0,59.77743665115159,
2_AF2007_AF1328,left,right,1.0904148000990972,0,3254.509373100009,3255.70762247002,2,2022-12-29-2131,VBDM,2021.2.0,59.77743665115159,
2_AF1366_AF897,right,right,0.909144900040701,1,3257.705952599994,3258.657445670024,2,2022-12-29-2131,VBDM,2021.2.0,59.77743665115159,
4_AF1090_AF1419,left,left,1.1510238000191748,1,3260.6603025000077,3261.840306869976,2,2022-12-29-2131,VBDM,2021.2.0,59.77743665115159,
1_AF987_AF715,right,right,0.9714909999165684,1,3263.8389447999652,3264.8905646700064,2,2022-12-29-2131,VBDM,2021.2.0,59.77743665115159,
4_AF1816_AF959,left,left,1.2188429000088945,1,3266.8903215000173,3268.140262169915,2,2022-12-29-2131,VBDM,2021.2.0,59.77743665115159,
3_AF2_AF1667,right,right,1.4661775999702513,1,3270.1397658999776,3271.6904937699787,2,2022-12-29-2131,VBDM,2021.2.0,59.77743665115159,
1_AF491_AF1162,left,right,1.1127170999534428,0,3273.688719799975,3274.8738758699387,2,2022-12-29-2131,VBDM,2021.2.0,59.77743665115159,
1_AF1597_AF1966,right,right,1.0303920999867842,1,3276.875580699998,3278.557064769941,2,2022-12-29-2131,VBDM,2021.2.0,59.77743665115159,
2_AF1006_AF1699,right,right,1.0925339999375865,1,3280.555355499964,3281.7241104699556,2,2022-12-29-2131,VBDM,2021.2.0,59.77743665115159,
3_AF1402_AF1499,left,left,1.1661632999312133,1,3283.7224042000016,3284.9405020699255,2,2022-12-29-2131,VBDM,2021.2.0,59.77743665115159,
3_AF1667_AF510,left,left,0.9111194000579417,1,3286.9390790000325,3287.9237704699976,2,2022-12-29-2131,VBDM,2021.2.0,59.77743665115159,
2_AF1813_AF1365,right,right,0.7635012000100687,1,3289.9222732000053,3290.723706370022,2,2022-12-29-2131,VBDM,2021.2.0,59.77743665115159,
1_AF1692_AF1966,left,right,1.1817323000868782,0,3292.7209567999234,3293.9740276700236,2,2022-12-29-2131,VBDM,2021.2.0,59.77743665115159,
2_AF1576_AF1812,right,right,1.0439076999900863,1,3295.9713123999536,3297.090228469961,2,2022-12-29-2131,VBDM,2021.2.0,59.77743665115159,
1_AF1162_AF1966,right,right,0.9720896000508219,1,3299.0889958000043,3300.140485269984,2,2022-12-29-2131,VBDM,2021.2.0,59.77743665115159,
1_AF1561_AF1659,right,right,0.9816840999992564,1,3302.138251599972,3303.1734842700303,2,2022-12-29-2131,VBDM,2021.2.0,59.77743665115159,
2_AF1532_AF1638,right,right,1.0933548000175506,1,3305.1709770000307,3306.3404424699606,2,2022-12-29-2131,VBDM,2021.2.0,59.77743665115159,
2_AF1603_AF1029,right,right,1.2023631000192836,1,3308.3381189999636,3309.5903990699794,2,2022-12-29-2131,VBDM,2021.2.0,59.77743665115159,
1_AF1551_AF1735,right,left,1.2049863000866026,0,3311.591494799941,3312.85690826996,2,2022-12-29-2131,VBDM,2021.2.0,59.77743665115159,
4_AF593_AF1816,right,right,0.7615908000152558,1,3314.854422000004,3315.6904537700234,2,2022-12-29-2131,VBDM,2021.2.0,59.77743665115159,
1_AF2008_AF1684,left,right,1.3204306000843644,0,3317.701174699934,3319.0905482699513,2,2022-12-29-2131,VBDM,2021.2.0,59.77743665115159,
3_AF1468_AF113,left,left,1.1231701000360772,1,3321.0920896999305,3322.3067827700056,2,2022-12-29-2131,VBDM,2021.2.0,59.77743665115159,
1_AF1561_AF582,left,left,1.7442801999859512,1,3324.3039634999586,3326.1238106700243,2,2022-12-29-2131,VBDM,2021.2.0,59.77743665115159,
4_AF600_AF2006,right,right,1.0538161000004038,1,3328.1228594999993,3329.290610470029,2,2022-12-29-2131,VBDM,2021.2.0,59.77743665115159,
1_AF1643_AF1735,left,left,1.3594694000203162,1,3331.2891381999943,3332.723519769998,2,2022-12-29-2131,VBDM,2021.2.0,59.77743665115159,
1_AF1064_AF433,left,left,1.5131590999662876,1,3334.72088119993,3336.323841169977,2,2022-12-29-2131,VBDM,2021.2.0,59.77743665115159,
2_AF1638_AF709,left,left,1.519769400008954,1,3338.3218767000362,3339.9070378699457,2,2022-12-29-2131,VBDM,2021.2.0,59.77743665115159,
3_AF1326_AF1402,right,right,1.7390756999375299,1,3341.904984700028,3343.7236298700213,2,2022-12-29-2131,VBDM,2021.2.0,59.77743665115159,
1_AF1980_AF724,right,right,0.9303496000356972,1,3345.7218218999915,3346.7572324700072,2,2022-12-29-2131,VBDM,2021.2.0,59.77743665115159,
3_AF454_AF1365,right,right,1.0323345999931917,1,3348.754976499942,3349.823810569977,2,2022-12-29-2131,VBDM,2021.2.0,59.77743665115159,
3_AF1501_AF1284,left,left,1.0434252000413835,1,3351.8197588999756,3352.9404954699917,2,2022-12-29-2131,VBDM,2021.2.0,59.77743665115159,
2_AF912_AF1468,right,right,1.1044470999622717,1,3354.9378142999485,3356.1401425699355,2,2022-12-29-2131,VBDM,2021.2.0,59.77743665115159,
1_AF1065_AF600,left,left,1.288325700093992,1,3358.1371334999567,3359.489953369985,2,2022-12-29-2131,VBDM,2021.2.0,59.77743665115159,
4_AF1551_AF1090,right,right,1.1791482999688014,1,3361.4864572000224,3362.7236772699166,2,2022-12-29-2131,VBDM,2021.2.0,59.77743665115159,
2_AF1434_AF1837,right,right,1.1979745000135154,1,3364.7217443999834,3365.9904285699945,2,2022-12-29-2131,VBDM,2021.2.0,59.77743665115159,
1_AF1065_AF1203,left,right,1.1203562999144197,0,3367.9880160000175,3369.1734625699814,2,2022-12-29-2131,VBDM,2021.2.0,59.77743665115159,
2_AF1585_AF881,left,left,1.8373699999647215,1,3371.170121000032,3373.0738144700067,2,2022-12-29-2131,VBDM,2021.2.0,59.77743665115159,
4_AF454_AF2001,right,right,0.8723108000122011,1,3375.0721703999443,3376.0237255699817,2,2022-12-29-2131,VBDM,2021.2.0,59.77743665115159,
3_AF685_AF1532,left,left,1.0534200000111014,1,3378.0216705999337,3379.1405002699817,2,2022-12-29-2131,VBDM,2021.2.0,59.77743665115159,
3_AF244_AF1272,left,left,1.2063259000424296,1,3381.1390865999274,3382.4238012699993,2,2022-12-29-2131,VBDM,2021.2.0,59.77743665115159,
4_AF1090_AF1284,left,left,0.8855013999855146,1,3480.1407162999967,3481.073403270019,2,2022-12-29-2131,VBDM,2021.2.0,59.77743665115159,
2_AF2005_AF565,right,right,0.9518144999165088,1,3483.072667200002,3484.08983607,2,2022-12-29-2131,VBDM,2021.2.0,59.77743665115159,
2_AF2011_AF1735,left,left,1.5327949000056833,1,3486.090622599935,3487.7735489699176,2,2022-12-29-2131,VBDM,2021.2.0,59.77743665115159,
2_AF491_AF1811,left,left,0.9801994999870658,1,3489.772758499952,3490.8064159700066,2,2022-12-29-2131,VBDM,2021.2.0,59.77743665115159,
1_AF1638_AF1837,right,right,0.8961752000031993,1,3492.804327599937,3493.7567240699777,2,2022-12-29-2131,VBDM,2021.2.0,59.77743665115159,
1_AF1197_AF987,right,left,1.0671672000316903,0,3495.753228800022,3496.8568015699625,2,2022-12-29-2131,VBDM,2021.2.0,59.77743665115159,
3_AF1603_AF1903,right,right,1.0941646000137553,1,3498.85466870002,3500.0395726699267,2,2022-12-29-2131,VBDM,2021.2.0,59.77743665115159,
2_AF1560_AF709,left,left,0.9621007000096142,1,3502.038630999974,3503.073192569928,2,2022-12-29-2131,VBDM,2021.2.0,59.77743665115159,
1_AF433_AF1738,left,left,0.9135253999847919,1,3505.071719200001,3506.0730236699223,2,2022-12-29-2131,VBDM,2021.2.0,59.77743665115159,
3_AF1692_AF1603,left,left,1.1482779999496415,1,3508.0698270000285,3509.306583169999,2,2022-12-29-2131,VBDM,2021.2.0,59.77743665115159,
2_AF1734_AF1659,right,right,1.01840409997385,1,3511.305438900017,3512.39016106996,2,2022-12-29-2131,VBDM,2021.2.0,59.77743665115159,
1_AF1371_AF959,left,left,0.8764118999242783,1,3514.3869136000285,3515.3562237699866,2,2022-12-29-2131,VBDM,2021.2.0,59.77743665115159,
1_AF1832_AF1821,left,left,1.097343200002797,1,3517.3540946999565,3518.5398230699707,2,2022-12-29-2131,VBDM,2021.2.0,59.77743665115159,
1_AF1456_AF722,right,left,1.3879300999687985,0,3520.5364154999843,3522.0063664699323,2,2022-12-29-2131,VBDM,2021.2.0,59.77743665115159,
2_AF1659_AF409,left,left,1.1674409999977797,1,3524.00371119997,3525.290017269936,2,2022-12-29-2131,VBDM,2021.2.0,59.77743665115159,
2_AF1501_AF912,left,left,1.0554124000482261,1,3527.2886273999466,3528.423030469951,2,2022-12-29-2131,VBDM,2021.2.0,59.77743665115159,
2_AF1551_AF1669,right,right,1.3209531999891624,1,3530.420770799974,3531.8394801699674,2,2022-12-29-2131,VBDM,2021.2.0,59.77743665115159,
1_AF967_AF1720,left,right,1.6987821999937296,0,3533.836744799977,3535.5729093699833,2,2022-12-29-2131,VBDM,2021.2.0,59.77743665115159,
2_AF1647_AF1365,right,left,1.5729805000592023,0,3537.571277900017,3539.189958969981,2,2022-12-29-2131,VBDM,2021.2.0,59.77743665115159,
1_AF1362_AF1396,left,right,1.8333762999391183,0,3541.187325099949,3543.089641569916,2,2022-12-29-2131,VBDM,2021.2.0,59.77743665115159,
4_AF1816_AF1527,left,left,1.0841662000166252,1,3545.087513300008,3546.273107869935,2,2022-12-29-2131,VBDM,2021.2.0,59.77743665115159,
1_AF1980_AF1812,right,right,1.3876872999826446,1,3548.271365799941,3549.75644656996,2,2022-12-29-2131,VBDM,2021.2.0,59.77743665115159,
1_AF1270_AF1207,left,right,1.0718091999879107,0,3551.7532568000024,3552.8730553699775,2,2022-12-29-2131,VBDM,2021.2.0,59.77743665115159,
2_AF1597_AF244,right,right,1.080779799958691,1,3554.8706982999574,3556.056161669933,2,2022-12-29-2131,VBDM,2021.2.0,59.77743665115159,
2_AF2_AF1966,right,right,0.9226943000685424,1,3558.0522103999974,3559.0561991699856,2,2022-12-29-2131,VBDM,2021.2.0,59.77743665115159,
1_AF1658_AF715,right,right,0.7489037000341341,1,3561.052456800011,3561.9231165700244,2,2022-12-29-2131,VBDM,2021.2.0,59.77743665115159,
1_AF636_AF1576,left,right,1.1642427999759093,0,3563.921831500018,3565.1899349699147,2,2022-12-29-2131,VBDM,2021.2.0,59.77743665115159,
2_AF1064_AF510,left,left,1.544341400032863,1,3567.187424600008,3568.8229296700215,2,2022-12-29-2131,VBDM,2021.2.0,59.77743665115159,
2_AF1798_AF724,right,right,1.2269461000105366,1,3570.819509099936,3572.1561704699766,2,2022-12-29-2131,VBDM,2021.2.0,59.77743665115159,
2_AF962_AF1603,left,right,1.117076399968937,0,3574.1546756000025,3575.33957617,2,2022-12-29-2131,VBDM,2021.2.0,59.77743665115159,
3_AF1203_AF1405,right,right,1.6094676000066102,1,3577.336796700023,3579.0065115699895,2,2022-12-29-2131,VBDM,2021.2.0,59.77743665115159,
4_AF2001_AF709,left,left,0.9417036999948323,1,3581.006145399995,3582.0394049699303,2,2022-12-29-2131,VBDM,2021.2.0,59.77743665115159,
1_AF1977_AF1643,left,left,1.5979837999911979,1,3584.0376541999867,3585.7228620699957,2,2022-12-29-2131,VBDM,2021.2.0,59.77743665115159,
2_AF1029_AF1396,left,[],[],None,3587.71951309999,3589.7401089700056,2,2022-12-29-2131,VBDM,2021.2.0,59.77743665115159,
3_AF1789_AF1396,left,left,1.0149374000029638,1,3591.7397597000236,3592.8232527699206,2,2022-12-29-2131,VBDM,2021.2.0,59.77743665115159,
1_AF1734_AF1712,right,[],[],None,3594.8209359999746,3596.8401182699367,2,2022-12-29-2131,VBDM,2021.2.0,59.77743665115159,
1_AF300_AF1977,right,left,1.6191060999408364,0,3598.8388125000056,3600.5395963699907,2,2022-12-29-2131,VBDM,2021.2.0,59.77743665115159,
1_AF1065_AF1270,right,right,1.4960166999371722,1,3602.538967099972,3604.1227974699927,2,2022-12-29-2131,VBDM,2021.2.0,59.77743665115159,
1_AF1532_AF987,right,left,1.1266509999986738,0,3606.1188526999904,3607.356349570013,2,2022-12-29-2131,VBDM,2021.2.0,59.77743665115159,
3_AF1551_AF1977,right,right,1.04179460008163,1,3609.3534453000175,3610.4728206700297,2,2022-12-29-2131,VBDM,2021.2.0,59.77743665115159,
2_AF1405_AF1456,left,left,1.3676639999030158,1,3612.469453800004,3613.9061974699493,2,2022-12-29-2131,VBDM,2021.2.0,59.77743665115159,
1_AF395_AF510,left,right,1.3697261000052094,0,3615.9034171999665,3617.339413169923,2,2022-12-29-2131,VBDM,2021.2.0,59.77743665115159,
4_AF467_AF1816,right,right,0.9056709000142291,1,3619.3363184999907,3620.3062626700034,2,2022-12-29-2131,VBDM,2021.2.0,59.77743665115159,
1_AF1326_AF1828,right,right,1.389146100031212,1,3622.303368999972,3623.7730085699936,2,2022-12-29-2131,VBDM,2021.2.0,59.77743665115159,
2_AF1561_AF1603,left,left,1.4534215000458062,1,3625.771471199929,3627.306195969961,2,2022-12-29-2131,VBDM,2021.2.0,59.77743665115159,
2_AF1468_AF1734,left,left,0.9953465999569744,1,3629.303611499956,3630.3562594700256,2,2022-12-29-2131,VBDM,2021.2.0,59.77743665115159,
3_AF1576_AF1205,right,right,1.3606239999644458,1,3632.353708899929,3633.7895993700135,2,2022-12-29-2131,VBDM,2021.2.0,59.77743665115159,
3_AF1405_AF1576,left,left,0.9627694999799132,1,3635.787545499974,3636.856255869998,2,2022-12-29-2131,VBDM,2021.2.0,59.77743665115159,
1_AF912_AF600,left,right,0.96366719994694,0,3638.854172799969,3639.9228502699757,2,2022-12-29-2131,VBDM,2021.2.0,59.77743665115159,
2_AF1828_AF1659,right,right,0.8005749000003561,1,3641.919673299999,3642.7729414699484,2,2022-12-29-2131,VBDM,2021.2.0,59.77743665115159,
2_AF1576_AF724,right,right,1.2431636999826878,1,3644.9568290000316,3646.2892772700056,2,2022-12-29-2131,VBDM,2021.2.0,59.77743665115159,
1_AF962_AF1667,right,right,1.0576519999885932,1,3648.2855982999317,3649.4394178699354,2,2022-12-29-2131,VBDM,2021.2.0,59.77743665115159,
3_AF1365_AF1419,left,left,1.0555549999698997,1,3651.4375820999267,3652.572830369964,2,2022-12-29-2131,VBDM,2021.2.0,59.77743665115159,
1_AF1207_AF1832,right,left,1.057093699928373,0,3654.5710775000043,3655.6727985699313,2,2022-12-29-2131,VBDM,2021.2.0,59.77743665115159,
1_AF467_AF1720,right,right,1.1531381000531837,1,3657.6706465999596,3658.8894996699296,2,2022-12-29-2131,VBDM,2021.2.0,59.77743665115159,
2_AF2005_AF300,right,right,0.8969667999772355,1,3660.8886443999363,3661.856175869971,2,2022-12-29-2131,VBDM,2021.2.0,59.77743665115159,
1_AF433_AF491,right,right,1.5016260999254882,1,3663.854508199962,3665.4062977700146,2,2022-12-29-2131,VBDM,2021.2.0,59.77743665115159,
3_AF1667_AF1762,left,right,1.58989920001477,0,3667.4036748999497,3669.0558684700286,2,2022-12-29-2131,VBDM,2021.2.0,59.77743665115159,
3_AF1692_AF1551,left,left,1.1721436999505386,1,3671.0533742000116,3672.3226080700174,2,2022-12-29-2131,VBDM,2021.2.0,59.77743665115159,
1_AF467_AF1828,right,right,1.0177086000330746,1,3674.321233500028,3675.4227462699987,2,2022-12-29-2131,VBDM,2021.2.0,59.77743665115159,
3_AF1499_AF1656,right,right,1.6839356999844313,1,3677.420977700036,3679.1393190699514,2,2022-12-29-2131,VBDM,2021.2.0,59.77743665115159,
3_AF244_AF1603,left,left,1.2280097000766546,1,3681.1382621999364,3682.4059802699253,2,2022-12-29-2131,VBDM,2021.2.0,59.77743665115159,
1_AF967_AF1162,left,right,1.060832199989818,0,3684.402798300027,3685.5227237699205,2,2022-12-29-2131,VBDM,2021.2.0,59.77743665115159,
2_AF1955_AF1551,left,left,1.334562600008212,1,3687.5200248999754,3688.9225634700038,2,2022-12-29-2131,VBDM,2021.2.0,59.77743665115159,
1_AF491_AF1734,left,right,1.1719672000035644,0,3690.9212259999476,3692.1726543699974,2,2022-12-29-2131,VBDM,2021.2.0,59.77743665115159,
3_AF1284_AF1692,right,right,1.1201511999825016,1,3694.170604099985,3695.3393054699177,2,2022-12-29-2131,VBDM,2021.2.0,59.77743665115159,
2_AF582_AF1837,right,right,0.8831482999958098,1,3697.3372593999375,3699.1226317700116,2,2022-12-29-2131,VBDM,2021.2.0,59.77743665115159,
3_AF2005_AF1667,right,right,0.9331960000563413,1,3701.121437099995,3702.1395176699502,2,2022-12-29-2131,VBDM,2021.2.0,59.77743665115159,
2_AF1584_AF1284,left,right,1.2026132000610232,0,3704.137728199945,3705.4395766699804,2,2022-12-29-2131,VBDM,2021.2.0,59.77743665115159,
3_AF2012_AF685,right,right,1.0306048999773338,1,3707.4438842999516,3708.57277266999,2,2022-12-29-2131,VBDM,2021.2.0,59.77743665115159,
3_AF1499_AF1468,right,right,0.8948240999598056,1,3710.5711203999817,3711.5058976699715,2,2022-12-29-2131,VBDM,2021.2.0,59.77743665115159,
4_AF1090_AF1527,left,left,0.9929034999804571,1,3713.50362470001,3714.6558600699414,2,2022-12-29-2131,VBDM,2021.2.0,59.77743665115159,
1_AF1326_AF1362,right,right,1.5633750000270084,1,3716.6600720999995,3718.2726120700013,2,2022-12-29-2131,VBDM,2021.2.0,59.77743665115159,
1_AF1908_AF722,right,left,1.5081011999864131,0,3720.271095599979,3721.839316670003,2,2022-12-29-2131,VBDM,2021.2.0,59.77743665115159,
1_AF1659_AF1846,left,left,1.180750900064595,1,3723.8371800000314,3725.0557635699283,2,2022-12-29-2131,VBDM,2021.2.0,59.77743665115159,
2_AF1402_AF1207,left,right,1.122160799917765,0,3727.053126899991,3728.239200669958,2,2022-12-29-2131,VBDM,2021.2.0,59.77743665115159,
1_AF409_AF1270,right,right,1.4269076000200585,1,3730.2369719999842,3731.755787269946,2,2022-12-29-2131,VBDM,2021.2.0,59.77743665115159,
2_AF454_AF1585,right,right,1.6907736000139266,1,3733.7526093999622,3735.5560582699604,2,2022-12-29-2131,VBDM,2021.2.0,59.77743665115159,
1_AF1798_AF1371,right,right,1.1454507999587804,1,3737.553469500039,3738.7728143700283,2,2022-12-29-2131,VBDM,2021.2.0,59.77743665115159,
2_AF1689_AF685,right,right,1.5199170999694616,1,3740.7702293000184,3742.389104469947,2,2022-12-29-2131,VBDM,2021.2.0,59.77743665115159,
1_AF881_AF1908,right,right,1.341573299956508,1,3744.3864296999527,3745.806260769989,2,2022-12-29-2131,VBDM,2021.2.0,59.77743665115159,
3_AF1284_AF1637,right,right,1.4778987999306992,1,3747.803389000008,3749.338734269992,2,2022-12-29-2131,VBDM,2021.2.0,59.77743665115159,
2_AF1812_AF1326,left,[],[],None,3751.3358158000046,3753.35587256999,2,2022-12-29-2131,VBDM,2021.2.0,59.77743665115159,
1_AF395_AF1576,left,left,1.1961953999707475,1,3755.353673800011,3756.6392640699983,2,2022-12-29-2131,VBDM,2021.2.0,59.77743665115159,
1_AF1297_AF1669,right,left,1.108196399989538,0,3758.6365528999595,3759.8393148699893,2,2022-12-29-2131,VBDM,2021.2.0,59.77743665115159,
1_AF1670_AF398,left,left,1.359664799994789,1,3761.836691400036,3763.2891404700117,2,2022-12-29-2131,VBDM,2021.2.0,59.77743665115159,
4_AF2006_AF454,left,left,0.9044360000407323,1,3765.2916576999705,3766.3057419699967,2,2022-12-29-2131,VBDM,2021.2.0,59.77743665115159,
2_AF1501_AF1821,left,left,0.9205545000731945,1,3768.304660100024,3769.2890303699883,2,2022-12-29-2131,VBDM,2021.2.0,59.77743665115159,
2_AF1335_AF113,left,left,1.0721748999785632,1,3771.286822899943,3772.422516069992,2,2022-12-29-2131,VBDM,2021.2.0,59.77743665115159,
3_AF244_AF467,left,left,1.0610292999772355,1,3774.4199569999473,3775.5560860699393,2,2022-12-29-2131,VBDM,2021.2.0,59.77743665115159,
1_AF409_AF2,left,left,0.903739600093104,1,3777.5535174999386,3778.5390703699436,2,2022-12-29-2131,VBDM,2021.2.0,59.77743665115159,
2_AF1434_AF1659,right,right,0.8687040000222623,1,3780.5365354999667,3781.489210469916,2,2022-12-29-2131,VBDM,2021.2.0,59.77743665115159,
1_AF1789_AF1567,left,left,1.8274822001112625,1,3783.4856218999485,3785.372634369915,2,2022-12-29-2131,VBDM,2021.2.0,59.77743665115159,
4_AF2001_AF1532,left,left,0.9326832999940962,1,3787.3726119999774,3788.355743169936,2,2022-12-29-2131,VBDM,2021.2.0,59.77743665115159,
4_AF1197_AF2006,right,right,0.978080099914223,1,3790.3562801999506,3791.3890662700055,2,2022-12-29-2131,VBDM,2021.2.0,59.77743665115159,
2_AF1366_AF1955,right,right,0.7915743999183178,1,3793.387159200036,3794.8059738700163,2,2022-12-29-2131,VBDM,2021.2.0,59.77743665115159,
2_AF1456_AF1714,right,right,0.94463879999239,1,3796.803069900023,3797.822711869993,2,2022-12-29-2131,VBDM,2021.2.0,59.77743665115159,
1_AF1734_AF1284,left,left,1.078769600018859,1,3799.819377399981,3800.9560992699467,2,2022-12-29-2131,VBDM,2021.2.0,59.77743665115159,
2_AF1434_AF1903,right,right,0.9895748000126332,1,3802.9535728000337,3804.022273869987,2,2022-12-29-2131,VBDM,2021.2.0,59.77743665115159,
3_AF1328_AF1402,right,right,1.3795786999398842,1,3806.020434099948,3807.5055871699356,2,2022-12-29-2131,VBDM,2021.2.0,59.77743665115159,
3_AF1365_AF113,left,right,0.9586481000296772,0,3824.2395774000324,3825.2221418699833,2,2022-12-29-2131,VBDM,2021.2.0,59.77743665115159,
3_AF1419_AF1667,right,right,1.0195993999950588,1,3827.2219233999494,3828.3056803699933,2,2022-12-29-2131,VBDM,2021.2.0,59.77743665115159,
3_AF510_AF1692,right,right,1.0896919999504462,1,3830.303630099981,3831.4554739699583,2,2022-12-29-2131,VBDM,2021.2.0,59.77743665115159,
1_AF1659_AF967,left,left,0.9008658999809995,1,3833.453119999962,3834.4222444700195,2,2022-12-29-2131,VBDM,2021.2.0,59.77743665115159,
3_AF685_AF1738,left,left,0.8525276000145823,1,3836.4200446000323,3837.3724384699367,2,2022-12-29-2131,VBDM,2021.2.0,59.77743665115159,
2_AF1699_AF959,left,left,0.9181593999965116,1,3839.3696239999263,3840.3889356699424,2,2022-12-29-2131,VBDM,2021.2.0,59.77743665115159,
2_AF1584_AF2005,left,left,1.477883700048551,1,3842.3881469999906,3843.88891746992,2,2022-12-29-2131,VBDM,2021.2.0,59.77743665115159,
1_AF395_AF1551,left,left,1.5194454999873415,1,3845.8875063000014,3847.4389204699896,2,2022-12-29-2131,VBDM,2021.2.0,59.77743665115159,
1_AF1980_AF491,right,right,1.2684628000715747,1,3849.438119199942,3850.7888495700086,2,2022-12-29-2131,VBDM,2021.2.0,59.77743665115159,
1_AF1813_AF1203,left,left,1.5338669000193477,1,3852.7871895999415,3854.3888294699486,2,2022-12-29-2131,VBDM,2021.2.0,59.77743665115159,
1_AF1336_AF2009,left,left,1.1079099000198767,1,3856.386646299972,3857.5721242699424,2,2022-12-29-2131,VBDM,2021.2.0,59.77743665115159,
3_AF593_AF1402,right,right,1.5506263000424951,1,3859.571247200016,3861.2721761699418,2,2022-12-29-2131,VBDM,2021.2.0,59.77743665115159,
2_AF1527_AF1832,right,right,1.072251099976711,1,3863.2698760000058,3864.422286969994,2,2022-12-29-2131,VBDM,2021.2.0,59.77743665115159,
1_AF1813_AF932,left,left,1.2668831000337377,1,3866.4197536000283,3867.7723897699384,2,2022-12-29-2131,VBDM,2021.2.0,59.77743665115159,
2_AF1637_AF1821,left,left,1.5169168999418616,1,3869.7695451999316,3871.389398069971,2,2022-12-29-2131,VBDM,2021.2.0,59.77743665115159,
3_AF1762_AF1205,right,right,1.2604750000173226,1,3873.3859398999484,3874.7390877700295,2,2022-12-29-2131,VBDM,2021.2.0,59.77743665115159,
1_AF1675_AF1297,left,left,1.434389999951236,1,3876.7364637999563,3878.2386458699243,2,2022-12-29-2131,VBDM,2021.2.0,59.77743665115159,
1_AF1828_AF1966,right,right,1.0409428999992087,1,3880.235560299945,3881.355491269997,2,2022-12-29-2131,VBDM,2021.2.0,59.77743665115159,
4_AF2001_AF467,left,left,0.9591211000224575,1,3883.3547191999387,3884.4220859699767,2,2022-12-29-2131,VBDM,2021.2.0,59.77743665115159,
2_AF244_AF1162,left,left,1.4561801000963897,1,3886.419252999942,3887.9556898699725,2,2022-12-29-2131,VBDM,2021.2.0,59.77743665115159,
2_AF454_AF2007,right,right,1.3910067999968305,1,3889.9580711999442,3891.4222471699236,2,2022-12-29-2131,VBDM,2021.2.0,59.77743665115159,
1_AF1419_AF1980,right,left,1.4461097999010235,0,3893.4278519999934,3894.938944769942,2,2022-12-29-2131,VBDM,2021.2.0,59.77743665115159,
1_AF1811_AF1720,right,right,1.0130022000521421,1,3896.935928400024,3898.038785869989,2,2022-12-29-2131,VBDM,2021.2.0,59.77743665115159,
3_AF685_AF709,left,left,0.9893866999773309,1,3900.0352365999715,3901.1387388699573,2,2022-12-29-2131,VBDM,2021.2.0,59.77743665115159,
2_AF300_AF467,left,left,1.1832374000223354,1,3903.136357599986,3904.3892485699967,2,2022-12-29-2131,VBDM,2021.2.0,59.77743665115159,
4_AF2001_AF2009,left,left,0.8065702000167221,1,3906.3886135999346,3907.272123470006,2,2022-12-29-2131,VBDM,2021.2.0,59.77743665115159,
2_AF2009_AF1832,right,right,1.6922799999592826,1,3909.270461100037,3911.0388254699415,2,2022-12-29-2131,VBDM,2021.2.0,59.77743665115159,
1_AF1171_AF1456,left,right,1.023814299958758,0,3913.0360216000117,3914.1221745700227,2,2022-12-29-2131,VBDM,2021.2.0,59.77743665115159,
2_AF2004_AF722,right,left,1.247912000049837,0,3916.126972600003,3917.471871770022,2,2022-12-29-2131,VBDM,2021.2.0,59.77743665115159,
1_AF1908_AF1584,right,right,1.4965949000325054,1,3919.4702145999763,3920.988852469984,2,2022-12-29-2131,VBDM,2021.2.0,59.77743665115159,
2_AF881_AF1148,right,right,1.0628006999613717,1,3922.9870944999857,3924.088718069985,2,2022-12-29-2131,VBDM,2021.2.0,59.77743665115159,
1_AF1659_AF1643,left,left,0.9569315999979153,1,3926.085425599944,3927.122127570014,2,2022-12-29-2131,VBDM,2021.2.0,59.77743665115159,
3_AF1197_AF1501,right,right,0.7655908999731764,1,3929.119374300004,3929.9720438699355,2,2022-12-29-2131,VBDM,2021.2.0,59.77743665115159,
4_AF1326_AF2006,right,right,0.8370418000267819,1,3931.9716582000256,3932.891585669981,2,2022-12-29-2131,VBDM,2021.2.0,59.77743665115159,
3_AF932_AF1637,right,right,0.752562899957411,1,3934.890320800012,3935.7227830699762,2,2022-12-29-2131,VBDM,2021.2.0,59.77743665115159,
4_AF113_AF2001,right,right,0.7725552999181673,1,3937.7218725000275,3938.538658269949,2,2022-12-29-2131,VBDM,2021.2.0,59.77743665115159,
1_AF1365_AF491,left,right,0.7087667000014335,0,3940.5388537999243,3941.2891006699415,2,2022-12-29-2131,VBDM,2021.2.0,59.77743665115159,
3_AF2008_AF959,left,left,0.9854799999156967,1,3943.307350600022,3944.3892082699226,2,2022-12-29-2131,VBDM,2021.2.0,59.77743665115159,
1_AF1064_AF1659,right,right,1.2411485000047833,1,3946.3894752999768,3947.688718869968,2,2022-12-29-2131,VBDM,2021.2.0,59.77743665115159,
4_AF932_AF1090,right,right,0.8699012000579387,1,3949.6859619999304,3950.6051788699465,2,2022-12-29-2131,VBDM,2021.2.0,59.77743665115159,
1_AF2_AF433,right,right,0.9903132999315858,1,3952.60226970003,3953.6219121700037,2,2022-12-29-2131,VBDM,2021.2.0,59.77743665115159,
3_AF1006_AF685,right,right,0.9880010000197217,1,3955.619629099965,3956.688766569982,2,2022-12-29-2131,VBDM,2021.2.0,59.77743665115159,
1_AF409_AF1832,right,left,1.5050480000209063,0,3958.6875636000186,3960.238567370025,2,2022-12-29-2131,VBDM,2021.2.0,59.77743665115159,
3_AF1714_AF1811,left,left,0.9471101000672206,1,3962.236775199999,3963.2551822699957,2,2022-12-29-2131,VBDM,2021.2.0,59.77743665115159,
1_AF1828_AF593,left,left,1.1655687000602484,1,3965.2520107999444,3966.5050720699714,2,2022-12-29-2131,VBDM,2021.2.0,59.77743665115159,
2_AF395_AF1692,right,[],[],None,3968.5022522000363,3970.522173969925,2,2022-12-29-2131,VBDM,2021.2.0,59.77743665115159,
4_AF1816_AF113,left,left,0.970762399956584,1,3972.5213113999926,3973.571773869952,2,2022-12-29-2131,VBDM,2021.2.0,59.77743665115159,
3_AF2009_AF1501,right,right,0.9063118000049144,1,3975.568540600012,3976.5386924699765,2,2022-12-29-2131,VBDM,2021.2.0,59.77743665115159,
3_AF1501_AF709,left,left,0.9685942999785766,1,3978.536963499966,3979.588696069934,2,2022-12-29-2131,VBDM,2021.2.0,59.77743665115159,
2_AF1336_AF1692,right,right,1.0323714000405744,1,3981.5853957999498,3982.68826046997,2,2022-12-29-2131,VBDM,2021.2.0,59.77743665115159,
3_AF1714_AF1738,left,left,1.3457033999729902,1,4041.605624399963,4043.0719269699534,2,2022-12-29-2131,VBDM,2021.2.0,59.77743665115159,
1_AF912_AF967,right,right,1.0606920999707654,1,4045.0694573000073,4046.221598969924,2,2022-12-29-2131,VBDM,2021.2.0,59.77743665115159,
2_AF1405_AF1689,left,left,0.647580899996683,1,4048.2198757999577,4048.9552650699975,2,2022-12-29-2131,VBDM,2021.2.0,59.77743665115159,
1_AF1658_AF1684,right,right,1.3473506000591442,1,4050.954044300015,4052.3716137699435,2,2022-12-29-2131,VBDM,2021.2.0,59.77743665115159,
3_AF1789_AF959,left,left,0.8885231000604108,1,4054.369513500016,4055.354975270026,2,2022-12-29-2131,VBDM,2021.2.0,59.77743665115159,
1_AF967_AF1980,left,left,1.1830222000135109,1,4057.352037900011,4058.5882552699536,2,2022-12-29-2131,VBDM,2021.2.0,59.77743665115159,
2_AF1546_AF1692,right,left,0.9498022000771016,0,4060.585396099952,4061.621480569977,2,2022-12-29-2131,VBDM,2021.2.0,59.77743665115159,
3_AF1637_AF2005,left,left,0.8209594000363722,1,4063.6204056999413,4064.5219853700023,2,2022-12-29-2131,VBDM,2021.2.0,59.77743665115159,
3_AF1837_AF709,left,left,0.9096478000283241,1,4066.520615599933,4067.5052679699497,2,2022-12-29-2131,VBDM,2021.2.0,59.77743665115159,
1_AF467_AF1371,right,left,0.8151306000072509,0,4069.502669599955,4070.3714098700207,2,2022-12-29-2131,VBDM,2021.2.0,59.77743665115159,
2_AF1551_AF1712,right,right,1.3437999999150634,1,4072.3700497000245,4073.8217648699997,2,2022-12-29-2131,VBDM,2021.2.0,59.77743665115159,
1_AF1148_AF1162,left,left,1.4816473999526352,1,4075.818920299993,4077.371922269964,2,2022-12-29-2131,VBDM,2021.2.0,59.77743665115159,
2_AF881_AF491,right,left,1.1206627000356093,0,4079.368319100002,4080.571485669969,2,2022-12-29-2131,VBDM,2021.2.0,59.77743665115159,
1_AF1714_AF897,left,left,0.9631155000533909,1,4082.5686775000067,4083.6221218699707,2,2022-12-29-2131,VBDM,2021.2.0,59.77743665115159,
1_AF1712_AF1821,left,right,1.1380269000073895,0,4085.620164699969,4086.8218080699794,2,2022-12-29-2131,VBDM,2021.2.0,59.77743665115159,
3_AF1527_AF1405,right,right,0.9315667999908328,1,4088.81929689995,4089.8385280699354,2,2022-12-29-2131,VBDM,2021.2.0,59.77743665115159,
1_AF1203_AF1597,right,left,1.0586729999631643,0,4091.8352454999695,4092.9216503699195,2,2022-12-29-2131,VBDM,2021.2.0,59.77743665115159,
1_AF722_AF1336,left,left,1.1024375000270084,1,4094.918930799933,4096.071627269999,2,2022-12-29-2131,VBDM,2021.2.0,59.77743665115159,
1_AF1908_AF1366,left,left,0.8524921999778599,1,4098.070474599954,4098.988661669928,2,2022-12-29-2131,VBDM,2021.2.0,59.77743665115159,
2_AF1647_AF1656,right,right,0.9819905000040308,1,4100.985986099928,4102.0551155699995,2,2022-12-29-2131,VBDM,2021.2.0,59.77743665115159,
2_AF1832_AF959,left,right,0.8781612999737263,0,4104.052604599972,4105.004940070014,2,2022-12-29-2131,VBDM,2021.2.0,59.77743665115159,
3_AF1903_AF600,left,left,1.0644470000406727,1,4107.0019411999965,4108.138336269918,2,2022-12-29-2131,VBDM,2021.2.0,59.77743665115159,
2_AF1798_AF1825,right,left,0.8253958000568673,0,4110.135839399998,4111.038049369969,2,2022-12-29-2131,VBDM,2021.2.0,59.77743665115159,
3_AF1197_AF1667,right,right,1.0589833999983966,1,4113.035603499971,4114.221424069989,2,2022-12-29-2131,VBDM,2021.2.0,59.77743665115159,
2_AF1205_AF2002,left,left,1.7868422999745235,1,4116.225447400007,4118.055102670018,2,2022-12-29-2131,VBDM,2021.2.0,59.77743665115159,
1_AF1832_AF2011,right,right,0.9058321000775322,1,4120.059416000033,4121.121407370001,2,2022-12-29-2131,VBDM,2021.2.0,59.77743665115159,
2_AF2012_AF1955,right,right,1.139072100049816,1,4123.1345892000245,4124.3049086699375,2,2022-12-29-2131,VBDM,2021.2.0,59.77743665115159,
4_AF2_AF1090,right,right,0.7374455000972375,1,4126.303893400007,4127.121766969945,2,2022-12-29-2131,VBDM,2021.2.0,59.77743665115159,
1_AF1527_AF409,right,right,0.9521515999222174,1,4129.119324999978,4130.188128070009,2,2022-12-29-2131,VBDM,2021.2.0,59.77743665115159,
2_AF1659_AF1670,left,left,0.9945948999375105,1,4132.187627899926,4133.272062270005,2,2022-12-29-2131,VBDM,2021.2.0,59.77743665115159,
1_AF1597_AF1419,left,right,1.0871336000273004,0,4135.269914699951,4136.438407569925,2,2022-12-29-2131,VBDM,2021.2.0,59.77743665115159,
1_AF1825_AF1456,left,right,0.8606969000538811,0,4138.43554570002,4139.388107769924,2,2022-12-29-2131,VBDM,2021.2.0,59.77743665115159,
2_AF1813_AF1667,right,right,1.6394914999837056,1,4141.385899699992,4143.1049685699745,2,2022-12-29-2131,VBDM,2021.2.0,59.77743665115159,
3_AF1637_AF1527,left,left,0.6604294000426307,1,4145.102060599951,4145.871928070008,2,2022-12-29-2131,VBDM,2021.2.0,59.77743665115159,
2_AF1468_AF1647,left,left,0.9593959000194445,1,4147.870064100018,4148.921759269933,2,2022-12-29-2131,VBDM,2021.2.0,59.77743665115159,
1_AF722_AF1689,left,left,1.0356475999578834,1,4150.920790700009,4152.021433669992,2,2022-12-29-2131,VBDM,2021.2.0,59.77743665115159,
3_AF685_AF1603,left,right,1.0434180001029745,0,4154.018798099947,4155.154866869945,2,2022-12-29-2131,VBDM,2021.2.0,59.77743665115159,
3_AF1419_AF1789,right,right,1.1627465999918059,1,4157.152499799966,4158.404864469927,2,2022-12-29-2131,VBDM,2021.2.0,59.77743665115159,
2_AF510_AF2007,right,left,0.7750157000264153,0,4160.414526300039,4161.254657269956,2,2022-12-29-2131,VBDM,2021.2.0,59.77743665115159,
