Trial,CorrectAns,choice,RT,Correct,key.started,key.stopped,participant,date,expName,psychopyVersion,frameRate,
2_AF1154_AF1669,left,left,1.16014069999801,1,1129.531080899993,1130.7205128499772,1,2022-12-27-2111,VBDM,2021.2.0,60.02563095790019,
1_AF433_AF1666,right,right,1.343612500000745,1,1132.719506399997,1134.170645050006,1,2022-12-27-2111,VBDM,2021.2.0,60.02563095790019,
3_AF867_AF1589,right,right,1.0886965000536293,1,1136.169662499975,1137.3540285499766,1,2022-12-27-2111,VBDM,2021.2.0,60.02563095790019,
4_AF1297_AF1419,left,left,1.112282200017944,1,1139.3555144999991,1140.5372748500085,1,2022-12-27-2111,VBDM,2021.2.0,60.02563095790019,
1_AF1955_AF31,right,left,0.907109500025399,0,1142.5381647999748,1143.487381749961,1,2022-12-27-2111,VBDM,2021.2.0,60.02563095790019,
4_AF1837_AF355,left,left,0.9639174999902025,1,1145.488164999988,1146.5039921499556,1,2022-12-27-2111,VBDM,2021.2.0,60.02563095790019,
2_AF582_AF663,right,right,1.0382493000361137,1,1148.5046414000099,1149.6372013500077,1,2022-12-27-2111,VBDM,2021.2.0,60.02563095790019,
4_AF1297_AF1576,left,left,1.0564251000178047,1,1151.6371874999604,1152.7707587499754,1,2022-12-27-2111,VBDM,2021.2.0,60.02563095790019,
1_AF712_AF1669,right,right,1.040800400020089,1,1154.7712067999528,1155.9041112499544,1,2022-12-27-2111,VBDM,2021.2.0,60.02563095790019,
2_AF324_AF1584,right,right,1.285512699978426,1,1157.9033416999737,1159.270419849956,1,2022-12-27-2111,VBDM,2021.2.0,60.02563095790019,
2_AF1065_AF1712,left,left,0.8882289999746718,1,1161.2771145000006,1162.254025549977,1,2022-12-27-2111,VBDM,2021.2.0,60.02563095790019,
1_AF1666_AF712,left,left,0.7375161999952979,1,1164.2557003999827,1165.0872747499961,1,2022-12-27-2111,VBDM,2021.2.0,60.02563095790019,
3_AF2010_AF1207,right,right,1.174945899983868,1,1167.0880729999626,1168.320658349956,1,2022-12-27-2111,VBDM,2021.2.0,60.02563095790019,
2_AF395_AF2006,right,right,0.9210294000222348,1,1170.327029099979,1171.3038183499593,1,2022-12-27-2111,VBDM,2021.2.0,60.02563095790019,
1_AF395_AF31,right,right,1.1252898999955505,1,1173.3105806999956,1174.520884550002,1,2022-12-27-2111,VBDM,2021.2.0,60.02563095790019,
1_AF1638_AF1532,left,right,0.885667199967429,0,1176.52125359996,1177.4538287500036,1,2022-12-27-2111,VBDM,2021.2.0,60.02563095790019,
1_AF1825_AF2012,right,right,1.648942600004375,1,1179.4691425999627,1181.1541404500022,1,2022-12-27-2111,VBDM,2021.2.0,60.02563095790019,
1_AF1546_AF470,left,right,1.8641037999768741,0,1183.1624893999542,1185.0871319499565,1,2022-12-27-2111,VBDM,2021.2.0,60.02563095790019,
1_AF1643_AF2012,right,left,1.7772226000088267,0,1187.0958813999896,1188.93759674998,1,2022-12-27-2111,VBDM,2021.2.0,60.02563095790019,
4_AF355_AF1197,right,right,1.0838459000224248,1,1190.9397943000076,1192.1204825500026,1,2022-12-27-2111,VBDM,2021.2.0,60.02563095790019,
2_AF867_AF1162,right,right,1.2746746999910101,1,1194.1226379,1195.503661750001,1,2022-12-27-2111,VBDM,2021.2.0,60.02563095790019,
1_AF1659_AF2012,left,left,1.231161699979566,1,1197.5129384999746,1198.8039724499686,1,2022-12-27-2111,VBDM,2021.2.0,60.02563095790019,
1_AF2_AF900,left,[],[],None,1200.8046694999794,1202.8202921499615,1,2022-12-27-2111,VBDM,2021.2.0,60.02563095790019,
3_AF1684_AF1029,left,left,1.6926566999754868,1,1204.821242599981,1206.5872824499966,1,2022-12-27-2111,VBDM,2021.2.0,60.02563095790019,
1_AF1029_AF565,right,right,1.1144203000003472,1,1208.58686879999,1209.770712849975,1,2022-12-27-2111,VBDM,2021.2.0,60.02563095790019,
2_AF1903_AF715,right,right,1.0221497000311501,1,1211.7766319999937,1212.9204583499813,1,2022-12-27-2111,VBDM,2021.2.0,60.02563095790019,
2_AF1813_AF2005,right,right,1.5727623999700882,1,1214.9231458999566,1216.5374339499976,1,2022-12-27-2111,VBDM,2021.2.0,60.02563095790019,
3_AF1207_AF1982,left,left,0.9723170999786817,1,1218.5390025000088,1219.6036630499875,1,2022-12-27-2111,VBDM,2021.2.0,60.02563095790019,
1_AF1532_AF600,right,left,0.8848595999879763,0,1221.6042222999968,1222.5370664499933,1,2022-12-27-2111,VBDM,2021.2.0,60.02563095790019,
3_AF1816_AF1576,left,left,1.4192690000054426,1,1224.536248199991,1226.0374332499923,1,2022-12-27-2111,VBDM,2021.2.0,60.02563095790019,
1_AF1692_AF1065,right,right,0.8497153000207618,1,1228.0375129999593,1228.9703847499914,1,2022-12-27-2111,VBDM,2021.2.0,60.02563095790019,
1_AF1762_AF1362,right,left,1.12507359997835,0,1230.9715035999543,1232.1705855499604,1,2022-12-27-2111,VBDM,2021.2.0,60.02563095790019,
1_AF433_AF1812,right,right,1.3393865000107326,1,1234.1703282999806,1235.5870912499959,1,2022-12-27-2111,VBDM,2021.2.0,60.02563095790019,
2_AF1569_AF1499,right,left,1.1323715000180528,0,1237.5860088999616,1238.8370417499682,1,2022-12-27-2111,VBDM,2021.2.0,60.02563095790019,
1_AF31_AF1982,left,right,1.092152500001248,0,1240.8366788999992,1242.0202243499807,1,2022-12-27-2111,VBDM,2021.2.0,60.02563095790019,
1_AF1762_AF2006,right,right,1.561066500027664,1,1244.0206063999794,1245.670295549964,1,2022-12-27-2111,VBDM,2021.2.0,60.02563095790019,
3_AF1203_AF722,left,left,1.2438842999981716,1,1247.6764781000093,1248.9869294500095,1,2022-12-27-2111,VBDM,2021.2.0,60.02563095790019,
3_AF1207_AF900,left,left,1.0148389000096358,1,1250.9874160999898,1252.0704392499756,1,2022-12-27-2111,VBDM,2021.2.0,60.02563095790019,
4_AF355_AF1297,right,right,0.8187438000459224,1,1254.0697276999708,1254.920146449993,1,2022-12-27-2111,VBDM,2021.2.0,60.02563095790019,
2_AF1499_AF962,left,left,1.187187300005462,1,1256.9196067999583,1258.2201724500046,1,2022-12-27-2111,VBDM,2021.2.0,60.02563095790019,
2_AF1929_AF1955,left,left,1.3431589999818243,1,1260.2210712999804,1261.6368892499595,1,2022-12-27-2111,VBDM,2021.2.0,60.02563095790019,
1_AF2009_AF1811,left,left,1.3831935999915004,1,1263.6395031999564,1265.086827549967,1,2022-12-27-2111,VBDM,2021.2.0,60.02563095790019,
1_AF1762_AF1405,right,right,1.5730725000030361,1,1267.0870819999836,1268.7202541499864,1,2022-12-27-2111,VBDM,2021.2.0,60.02563095790019,
2_AF1656_AF967,right,left,1.7137548999744467,0,1270.7183528000023,1272.5035843499936,1,2022-12-27-2111,VBDM,2021.2.0,60.02563095790019,
1_AF724_AF1903,left,left,1.58048519998556,1,1274.5038697999553,1276.1205895500025,1,2022-12-27-2111,VBDM,2021.2.0,60.02563095790019,
3_AF1684_AF1468,left,left,1.1063771999906749,1,1278.120711399999,1279.270242049999,1,2022-12-27-2111,VBDM,2021.2.0,60.02563095790019,
1_AF1643_AF1735,left,left,1.0320634000236169,1,1281.2702285999549,1282.4037366499542,1,2022-12-27-2111,VBDM,2021.2.0,60.02563095790019,
1_AF1955_AF1546,right,left,1.7300618999870494,0,1284.4046122999862,1286.1867227499606,1,2022-12-27-2111,VBDM,2021.2.0,60.02563095790019,
1_AF2_AF1638,right,right,1.496442699979525,1,1288.1859614999848,1289.7534141499782,1,2022-12-27-2111,VBDM,2021.2.0,60.02563095790019,
3_AF1816_AF355,left,left,1.296895100036636,1,1291.7539340999792,1293.1705634499667,1,2022-12-27-2111,VBDM,2021.2.0,60.02563095790019,
3_AF582_AF967,right,right,1.7608432000270113,1,1327.9203323999536,1329.7702713499893,1,2022-12-27-2111,VBDM,2021.2.0,60.02563095790019,
1_AF1908_AF1585,left,left,1.712207300006412,1,1331.7709594999906,1333.5031963500078,1,2022-12-27-2111,VBDM,2021.2.0,60.02563095790019,
1_AF433_AF1205,right,left,1.4478991000214592,0,1335.501906099962,1337.0202949499944,1,2022-12-27-2111,VBDM,2021.2.0,60.02563095790019,
4_AF1837_AF1576,left,left,1.1985737000359222,1,1339.019601399952,1340.2700575499912,1,2022-12-27-2111,VBDM,2021.2.0,60.02563095790019,
4_AF1551_AF685,right,right,0.9708712000283413,1,1342.2705196999596,1343.3202048499952,1,2022-12-27-2111,VBDM,2021.2.0,60.02563095790019,
4_AF2004_AF1837,right,right,0.7886106999940239,1,1345.3256842999835,1346.1867533499608,1,2022-12-27-2111,VBDM,2021.2.0,60.02563095790019,
1_AF1834_AF1762,left,right,0.7793135000392795,0,1348.1914658999885,1349.069863749959,1,2022-12-27-2111,VBDM,2021.2.0,60.02563095790019,
2_AF1828_AF712,left,left,1.3125009999494068,1,1351.0709122999688,1352.4368771499721,1,2022-12-27-2111,VBDM,2021.2.0,60.02563095790019,
4_AF1029_AF1837,right,right,0.9016053999657743,1,1354.4379238999682,1355.4036822500057,1,2022-12-27-2111,VBDM,2021.2.0,60.02563095790019,
2_AF2006_AF110,left,left,1.0542482999735512,1,1357.4057673999923,1358.5870068499935,1,2022-12-27-2111,VBDM,2021.2.0,60.02563095790019,
3_AF1356_AF1816,right,right,0.9689858999918215,1,1360.588187199959,1361.686580449983,1,2022-12-27-2111,VBDM,2021.2.0,60.02563095790019,
2_AF1233_AF1468,left,[],[],None,1363.685478099971,1365.7032836499857,1,2022-12-27-2111,VBDM,2021.2.0,60.02563095790019,
2_AF1828_AF962,left,left,1.2081048000254668,1,1367.706400999974,1369.0201117499964,1,2022-12-27-2111,VBDM,2021.2.0,60.02563095790019,
2_AF1725_AF900,left,left,1.2138801999972202,1,1371.0243001999916,1372.2702459499706,1,2022-12-27-2111,VBDM,2021.2.0,60.02563095790019,
2_AF600_AF1576,left,left,1.2273849999764934,1,1374.2711700999644,1375.569945449999,1,2022-12-27-2111,VBDM,2021.2.0,60.02563095790019,
1_AF470_AF1090,right,left,1.3452215999714099,0,1377.574517400004,1379.003568049986,1,2022-12-27-2111,VBDM,2021.2.0,60.02563095790019,
3_AF967_AF1569,left,left,1.275504999968689,1,1381.0034106000094,1382.336876049987,1,2022-12-27-2111,VBDM,2021.2.0,60.02563095790019,
2_AF1162_AF1356,left,left,1.1150939000071958,1,1384.3356094000046,1385.4864829499857,1,2022-12-27-2111,VBDM,2021.2.0,60.02563095790019,
1_AF569_AF1527,right,left,1.0639231999521144,0,1387.4855396999628,1388.6197762499796,1,2022-12-27-2111,VBDM,2021.2.0,60.02563095790019,
1_AF1560_AF1532,right,right,0.8859344000229612,1,1390.619145100005,1391.5865202499554,1,2022-12-27-2111,VBDM,2021.2.0,60.02563095790019,
4_AF1837_AF1699,left,left,1.0461307000368834,1,1393.5862196999951,1394.6868077499676,1,2022-12-27-2111,VBDM,2021.2.0,60.02563095790019,
1_AF1813_AF1884,right,left,1.0487898000283167,0,1396.6892351999995,1397.769950249989,1,2022-12-27-2111,VBDM,2021.2.0,60.02563095790019,
1_AF1205_AF1029,left,right,1.108357499993872,0,1399.7705146999797,1400.9370381499757,1,2022-12-27-2111,VBDM,2021.2.0,60.02563095790019,
3_AF1419_AF1667,right,right,1.4605996999889612,1,1402.943673599977,1404.48680194997,1,2022-12-27-2111,VBDM,2021.2.0,60.02563095790019,
4_AF1837_AF1798,left,left,1.0297251000301912,1,1406.4877437999821,1407.5868546499987,1,2022-12-27-2111,VBDM,2021.2.0,60.02563095790019,
2_AF867_AF2005,right,right,1.2069430999690667,1,1409.5881781000062,1410.8701767500024,1,2022-12-27-2111,VBDM,2021.2.0,60.02563095790019,
2_AF932_AF1638,right,right,1.38979859999381,1,1412.8717273999937,1414.3201669499977,1,2022-12-27-2111,VBDM,2021.2.0,60.02563095790019,
3_AF1396_AF1667,right,right,1.000576899969019,1,1416.3188843999524,1417.4203023499576,1,2022-12-27-2111,VBDM,2021.2.0,60.02563095790019,
2_AF1090_AF967,right,right,1.5289232999784872,1,1419.4216014999547,1421.003365749959,1,2022-12-27-2111,VBDM,2021.2.0,60.02563095790019,
1_AF569_AF1643,right,left,1.478255399968475,0,1423.0036525999894,1424.5368918500026,1,2022-12-27-2111,VBDM,2021.2.0,60.02563095790019,
4_AF1419_AF685,right,right,0.8238946000346914,1,1426.5382967999903,1427.4365909500048,1,2022-12-27-2111,VBDM,2021.2.0,60.02563095790019,
2_AF2012_AF1712,left,left,1.1678089000051841,1,1429.4495855999994,1430.7199143499602,1,2022-12-27-2111,VBDM,2021.2.0,60.02563095790019,
1_AF1065_AF2008,left,[],[],None,1432.7444080999703,1434.7369915499585,1,2022-12-27-2111,VBDM,2021.2.0,60.02563095790019,
1_AF639_AF1908,left,left,1.3875527000054717,1,1436.7679056999623,1438.2365244500106,1,2022-12-27-2111,VBDM,2021.2.0,60.02563095790019,
1_AF2_AF434,left,left,1.6461060000001453,1,1440.236406799988,1442.0034827499767,1,2022-12-27-2111,VBDM,2021.2.0,60.02563095790019,
2_AF582_AF41,right,right,1.771023300010711,1,1444.0034932999988,1445.886439349968,1,2022-12-27-2111,VBDM,2021.2.0,60.02563095790019,
2_AF1834_AF784,left,[],[],None,1447.886361599958,1449.9035945499782,1,2022-12-27-2111,VBDM,2021.2.0,60.02563095790019,
1_AF962_AF31,right,[],[],None,1451.9037901999545,1453.9199584499584,1,2022-12-27-2111,VBDM,2021.2.0,60.02563095790019,
1_AF1812_AF1501,right,left,1.2919066000031307,0,1455.9209845999721,1457.302972149977,1,2022-12-27-2111,VBDM,2021.2.0,60.02563095790019,
3_AF597_AF1514,right,right,1.7052502000005916,1,1459.3036306999857,1461.036107449967,1,2022-12-27-2111,VBDM,2021.2.0,60.02563095790019,
3_AF1154_AF1551,left,left,1.0471839999663644,1,1463.0361792999902,1464.1362939499668,1,2022-12-27-2111,VBDM,2021.2.0,60.02563095790019,
1_AF1284_AF1712,left,left,1.1754482999676839,1,1466.1353509000037,1467.3530845500063,1,2022-12-27-2111,VBDM,2021.2.0,60.02563095790019,
2_AF1714_AF434,left,left,1.2799105999874882,1,1469.3598389999825,1470.7198259499855,1,2022-12-27-2111,VBDM,2021.2.0,60.02563095790019,
1_AF31_AF1908,right,right,1.2702386999735609,1,1472.7203047999647,1474.06961924996,1,2022-12-27-2111,VBDM,2021.2.0,60.02563095790019,
3_AF1207_AF1456,left,left,1.0615940000279807,1,1476.070909400005,1477.2531324499869,1,2022-12-27-2111,VBDM,2021.2.0,60.02563095790019,
2_AF1929_AF395,left,left,1.0828054000157863,1,1479.253911799984,1480.4196022499818,1,2022-12-27-2111,VBDM,2021.2.0,60.02563095790019,
3_AF1336_AF639,right,right,0.9911143999779597,1,1482.4199877000065,1483.5531815499999,1,2022-12-27-2111,VBDM,2021.2.0,60.02563095790019,
3_AF1514_AF355,left,left,1.142432300024666,1,1485.553501699993,1486.8197718499578,1,2022-12-27-2111,VBDM,2021.2.0,60.02563095790019,
1_AF1643_AF722,left,left,1.3344255000120029,1,1488.819825399958,1490.219835750002,1,2022-12-27-2111,VBDM,2021.2.0,60.02563095790019,
1_AF1065_AF967,right,right,0.8572843000292778,1,1492.2211827999563,1493.1533733499818,1,2022-12-27-2111,VBDM,2021.2.0,60.02563095790019,
1_AF1585_AF1419,left,[],[],None,1529.2700358000002,1531.2865889499662,1,2022-12-27-2111,VBDM,2021.2.0,60.02563095790019,
1_AF1966_AF1585,left,right,0.9145359999965876,0,1533.2887509999564,1534.2697623499553,1,2022-12-27-2111,VBDM,2021.2.0,60.02563095790019,
1_AF1903_AF987,right,left,1.3075206000357866,0,1536.2700048999977,1537.6527671499643,1,2022-12-27-2111,VBDM,2021.2.0,60.02563095790019,
1_AF1666_AF1296,left,left,1.0750193999847397,1,1539.652699499973,1540.8530242499546,1,2022-12-27-2111,VBDM,2021.2.0,60.02563095790019,
2_AF1908_AF1456,left,left,1.5329211000353098,1,1542.8542897999869,1544.4861500499537,1,2022-12-27-2111,VBDM,2021.2.0,60.02563095790019,
2_AF600_AF110,left,left,1.1511503999936394,1,1546.4839023000095,1547.7527520500007,1,2022-12-27-2111,VBDM,2021.2.0,60.02563095790019,
2_AF1569_AF1638,right,left,1.6578712000045925,0,1549.7570726999547,1551.5198257499724,1,2022-12-27-2111,VBDM,2021.2.0,60.02563095790019,
3_AF1589_AF1356,left,left,0.9824614999815822,1,1553.522409099969,1554.5361237499746,1,2022-12-27-2111,VBDM,2021.2.0,60.02563095790019,
2_AF1908_AF1982,left,left,1.0201712000416592,1,1556.5367444999865,1557.603103749978,1,2022-12-27-2111,VBDM,2021.2.0,60.02563095790019,
2_AF1396_AF715,right,right,0.8274838999495842,1,1559.6032296000049,1560.5530407499755,1,2022-12-27-2111,VBDM,2021.2.0,60.02563095790019,
3_AF1811_AF1312,right,right,0.9815671999822371,1,1562.5609803999541,1563.619396850001,1,2022-12-27-2111,VBDM,2021.2.0,60.02563095790019,
2_AF600_AF1811,left,left,1.039010300009977,1,1565.619221800007,1566.786734949972,1,2022-12-27-2111,VBDM,2021.2.0,60.02563095790019,
1_AF2009_AF2010,left,left,1.3101830999949016,1,1568.788351700001,1570.136471649981,1,2022-12-27-2111,VBDM,2021.2.0,60.02563095790019,
2_AF2012_AF1336,left,left,0.9729801000212319,1,1572.1471925000078,1573.1862518499838,1,2022-12-27-2111,VBDM,2021.2.0,60.02563095790019,
2_AF1725_AF470,left,right,0.8772445000358857,0,1575.1913298,1576.1196889499552,1,2022-12-27-2111,VBDM,2021.2.0,60.02563095790019,
1_AF2012_AF2008,left,right,1.0191626000450924,0,1578.1468491999549,1579.2697348499787,1,2022-12-27-2111,VBDM,2021.2.0,60.02563095790019,
1_AF2_AF2003,left,left,1.0709812000277452,1,1581.2835821000044,1582.4361718499567,1,2022-12-27-2111,VBDM,2021.2.0,60.02563095790019,
1_AF1834_AF1825,left,left,0.9092145999893546,1,1584.4364524999983,1585.4863486499526,1,2022-12-27-2111,VBDM,2021.2.0,60.02563095790019,
3_AF244_AF1203,right,right,0.957053399994038,1,1587.4873287999653,1588.5528520499938,1,2022-12-27-2111,VBDM,2021.2.0,60.02563095790019,
2_AF1789_AF2012,right,left,1.0770567000145093,0,1590.5683807999594,1591.7862523499643,1,2022-12-27-2111,VBDM,2021.2.0,60.02563095790019,
4_AF900_AF685,right,right,0.693428699974902,1,1593.7867623000056,1594.60276134999,1,2022-12-27-2111,VBDM,2021.2.0,60.02563095790019,
1_AF1755_AF491,right,[],[],None,1596.603786599997,1598.6193921499653,1,2022-12-27-2111,VBDM,2021.2.0,60.02563095790019,
2_AF1955_AF2005,right,right,1.1833746999618597,1,1600.6242246999755,1602.0028888499946,1,2022-12-27-2111,VBDM,2021.2.0,60.02563095790019,
2_AF1336_AF41,right,right,1.162552300025709,1,1604.0062829999952,1605.303049249982,1,2022-12-27-2111,VBDM,2021.2.0,60.02563095790019,
2_AF1789_AF1335,right,right,1.051409200008493,1,1607.304035499983,1608.4691080499906,1,2022-12-27-2111,VBDM,2021.2.0,60.02563095790019,
2_AF1666_AF1514,right,left,1.0143232999835163,0,1610.4697308999603,1611.5526958499686,1,2022-12-27-2111,VBDM,2021.2.0,60.02563095790019,
3_AF1154_AF1456,left,[],[],None,1613.5515767000034,1615.5698978499859,1,2022-12-27-2111,VBDM,2021.2.0,60.02563095790019,
1_AF110_AF565,right,right,1.221843900042586,1,1617.5745698999963,1618.969332150009,1,2022-12-27-2111,VBDM,2021.2.0,60.02563095790019,
2_AF433_AF491,right,right,1.0687648000312038,1,1620.970676099998,1622.1359942499548,1,2022-12-27-2111,VBDM,2021.2.0,60.02563095790019,
1_AF1090_AF1065,right,right,0.9248354000155814,1,1624.1356254999992,1625.1357507499633,1,2022-12-27-2111,VBDM,2021.2.0,60.02563095790019,
1_AF1527_AF663,right,right,0.7429257000330836,1,1627.1357674999745,1627.985982949962,1,2022-12-27-2111,VBDM,2021.2.0,60.02563095790019,
2_AF1006_AF593,right,right,1.0434023999841884,1,1629.992026299995,1631.136080449971,1,2022-12-27-2111,VBDM,2021.2.0,60.02563095790019,
3_AF1312_AF1576,left,left,1.1028245000052266,1,1633.1361781999585,1634.3361072499538,1,2022-12-27-2111,VBDM,2021.2.0,60.02563095790019,
2_AF1371_AF1977,right,right,1.0153260999941267,1,1636.3372907000012,1637.4696166499634,1,2022-12-27-2111,VBDM,2021.2.0,60.02563095790019,
2_AF2003_AF1638,right,right,0.6986453999998048,1,1639.473188199976,1640.219359849987,1,2022-12-27-2111,VBDM,2021.2.0,60.02563095790019,
2_AF712_AF1405,right,right,1.3487708999891765,1,1642.219387799967,1643.669245750003,1,2022-12-27-2111,VBDM,2021.2.0,60.02563095790019,
4_AF1297_AF2010,left,right,0.4632327000144869,0,1645.6701221999829,1646.1695386499632,1,2022-12-27-2111,VBDM,2021.2.0,60.02563095790019,
3_AF1336_AF1154,right,right,0.9694252000190318,1,1648.1736167999916,1649.2190928499913,1,2022-12-27-2111,VBDM,2021.2.0,60.02563095790019,
2_AF1362_AF1689,left,right,1.5537665999727324,0,1651.2199817000073,1652.8526673499728,1,2022-12-27-2111,VBDM,2021.2.0,60.02563095790019,
1_AF1233_AF1669,left,right,1.5398466999758966,0,1654.8535911999643,1656.4690758499783,1,2022-12-27-2111,VBDM,2021.2.0,60.02563095790019,
2_AF1296_AF663,right,right,1.3682369999587536,1,1658.4688371999655,1659.969393050007,1,2022-12-27-2111,VBDM,2021.2.0,60.02563095790019,
1_AF1955_AF724,right,left,1.3917927000438794,0,1661.9692654999672,1663.4524398499634,1,2022-12-27-2111,VBDM,2021.2.0,60.02563095790019,
1_AF1064_AF2001,left,right,1.192426300025545,0,1665.454691699997,1666.7524962499738,1,2022-12-27-2111,VBDM,2021.2.0,60.02563095790019,
2_AF1514_AF1585,left,left,1.33516309998231,1,1668.7537873999681,1670.1693042499828,1,2022-12-27-2111,VBDM,2021.2.0,60.02563095790019,
3_AF1699_AF967,right,right,1.219223599997349,1,1672.169988599955,1673.469168849988,1,2022-12-27-2111,VBDM,2021.2.0,60.02563095790019,
4_AF1197_AF1456,left,left,0.9653753999737091,1,1675.469809799979,1676.5527875499683,1,2022-12-27-2111,VBDM,2021.2.0,60.02563095790019,
1_AF1884_AF1419,left,right,0.9880094999680296,0,1678.55296489998,1679.5859220499988,1,2022-12-27-2111,VBDM,2021.2.0,60.02563095790019,
1_AF1813_AF2001,right,right,1.475631599954795,1,1681.5885257999762,1683.186039149994,1,2022-12-27-2111,VBDM,2021.2.0,60.02563095790019,
2_AF1725_AF1903,left,right,1.4941806999850087,0,1685.1846592999646,1686.7692011499894,1,2022-12-27-2111,VBDM,2021.2.0,60.02563095790019,
1_AF1356_AF1434,right,right,1.3426650000037625,1,1688.7716129999608,1690.1857410499942,1,2022-12-27-2111,VBDM,2021.2.0,60.02563095790019,
2_AF600_AF900,left,left,1.0336297000176273,1,1699.3192803999991,1700.3856221499736,1,2022-12-27-2111,VBDM,2021.2.0,60.02563095790019,
3_AF1659_AF1336,left,left,1.0268856000038795,1,1702.3860190999694,1703.5025735499803,1,2022-12-27-2111,VBDM,2021.2.0,60.02563095790019,
2_AF1712_AF1929,right,right,0.917844999989029,1,1705.5029403999797,1706.535782949999,1,2022-12-27-2111,VBDM,2021.2.0,60.02563095790019,
3_AF1589_AF1419,left,right,1.0115762000204995,0,1708.536642699968,1709.6855978500098,1,2022-12-27-2111,VBDM,2021.2.0,60.02563095790019,
1_AF2001_AF1396,left,left,1.1167387000168674,1,1711.6872975999722,1712.935904449958,1,2022-12-27-2111,VBDM,2021.2.0,60.02563095790019,
1_AF1692_AF1584,right,left,1.4615550999878906,0,1714.9361426999676,1716.5192320499918,1,2022-12-27-2111,VBDM,2021.2.0,60.02563095790019,
1_AF1090_AF1405,right,right,0.8225970000494272,1,1718.5194838999887,1719.502397549979,1,2022-12-27-2111,VBDM,2021.2.0,60.02563095790019,
1_AF434_AF987,right,right,1.5306026000180282,1,1721.5024340999662,1723.169079949963,1,2022-12-27-2111,VBDM,2021.2.0,60.02563095790019,
2_AF355_AF1499,right,right,1.3741849000216462,1,1725.1691565999645,1726.6689474500017,1,2022-12-27-2111,VBDM,2021.2.0,60.02563095790019,
3_AF2010_AF1154,right,right,0.9109483999782242,1,1728.6697121000034,1729.7358042499982,1,2022-12-27-2111,VBDM,2021.2.0,60.02563095790019,
3_AF1207_AF1371,left,left,0.9944681000197306,1,1731.7362163999933,1732.8026599499863,1,2022-12-27-2111,VBDM,2021.2.0,60.02563095790019,
2_AF1029_AF1064,right,left,0.8448324999772012,0,1734.8033257999923,1735.7191531499848,1,2022-12-27-2111,VBDM,2021.2.0,60.02563095790019,
2_AF1977_AF1699,left,left,1.010922399989795,1,1737.7196317999624,1738.8364214499597,1,2022-12-27-2111,VBDM,2021.2.0,60.02563095790019,
1_AF867_AF1692,right,right,0.8262660999898799,1,1740.8371837000013,1741.7525593499886,1,2022-12-27-2111,VBDM,2021.2.0,60.02563095790019,
2_AF1725_AF712,left,left,1.3985035000368953,1,1743.7521069999784,1745.2027228499646,1,2022-12-27-2111,VBDM,2021.2.0,60.02563095790019,
4_AF597_AF1297,right,right,0.6940102999797091,1,1747.201820599963,1747.9524733499857,1,2022-12-27-2111,VBDM,2021.2.0,60.02563095790019,
1_AF1090_AF597,left,right,1.3930037999525666,0,1749.9602343000006,1751.4023692499613,1,2022-12-27-2111,VBDM,2021.2.0,60.02563095790019,
1_AF1638_AF959,left,right,1.1483639999642037,0,1753.4011249999749,1754.6190541499527,1,2022-12-27-2111,VBDM,2021.2.0,60.02563095790019,
2_AF597_AF1720,right,left,0.9357158999773674,0,1756.6277880999842,1757.6528259500046,1,2022-12-27-2111,VBDM,2021.2.0,60.02563095790019,
1_AF2_AF41,right,right,1.075496600009501,1,1759.6545556999627,1760.8526053499663,1,2022-12-27-2111,VBDM,2021.2.0,60.02563095790019,
1_AF569_AF2009,right,right,0.8932128000305966,1,1762.8562870000023,1763.88597594999,1,2022-12-27-2111,VBDM,2021.2.0,60.02563095790019,
1_AF1006_AF1734,right,right,1.3433192999800667,1,1765.8870347999618,1767.3193019499886,1,2022-12-27-2111,VBDM,2021.2.0,60.02563095790019,
1_AF1356_AF1692,right,right,1.1275686000008136,1,1769.3199208999868,1770.5527577499743,1,2022-12-27-2111,VBDM,2021.2.0,60.02563095790019,
2_AF1065_AF1419,left,left,1.345168800035026,1,1772.5526631999528,1773.952286249958,1,2022-12-27-2111,VBDM,2021.2.0,60.02563095790019,
3_AF1699_AF1203,right,right,1.1633750000037253,1,1775.9530219999724,1777.2027518499526,1,2022-12-27-2111,VBDM,2021.2.0,60.02563095790019,
3_AF1813_AF639,right,right,1.8276802999898791,1,1779.2026219999534,1781.08560115,1,2022-12-27-2111,VBDM,2021.2.0,60.02563095790019,
1_AF1405_AF1205,left,left,1.4817999000078999,1,1783.085190999962,1784.6356291499687,1,2022-12-27-2111,VBDM,2021.2.0,60.02563095790019,
3_AF1684_AF1811,left,left,1.6649115000036545,1,1786.6340862999787,1788.368748549954,1,2022-12-27-2111,VBDM,2021.2.0,60.02563095790019,
1_AF959_AF1977,right,right,1.2910180000471883,1,1790.3689616000047,1791.7186926499708,1,2022-12-27-2111,VBDM,2021.2.0,60.02563095790019,
3_AF1589_AF244,left,left,1.3311524000018835,1,1793.7176419000025,1795.1522743499954,1,2022-12-27-2111,VBDM,2021.2.0,60.02563095790019,
1_AF900_AF1692,right,right,1.0916612000437453,1,1797.1530457999907,1798.318866549991,1,2022-12-27-2111,VBDM,2021.2.0,60.02563095790019,
2_AF110_AF1929,right,right,0.9933402000460774,1,1800.3182481999975,1801.3854949499946,1,2022-12-27-2111,VBDM,2021.2.0,60.02563095790019,
2_AF1735_AF663,right,[],[],None,1803.3862690000096,1805.4027844499797,1,2022-12-27-2111,VBDM,2021.2.0,60.02563095790019,
1_AF1712_AF1365,right,right,0.8247948000207543,1,1807.4020817999844,1808.3523846499738,1,2022-12-27-2111,VBDM,2021.2.0,60.02563095790019,
2_AF1735_AF1405,right,right,0.9030582999694161,1,1810.354357299977,1811.368823650002,1,2022-12-27-2111,VBDM,2021.2.0,60.02563095790019,
1_AF1755_AF1006,left,left,1.1513923999737017,1,1813.3685135999694,1814.6689760499867,1,2022-12-27-2111,VBDM,2021.2.0,60.02563095790019,
2_AF593_AF932,left,left,1.3092713999794796,1,1816.6676767999888,1818.102246149967,1,2022-12-27-2111,VBDM,2021.2.0,60.02563095790019,
2_AF1834_AF867,left,left,1.1976596000022255,1,1820.1010399999795,1821.40227864997,1,2022-12-27-2111,VBDM,2021.2.0,60.02563095790019,
1_AF1405_AF1284,left,left,0.979771200043615,1,1823.4019064999884,1824.5189863499836,1,2022-12-27-2111,VBDM,2021.2.0,60.02563095790019,
4_AF867_AF1832,right,right,1.0118195000104606,1,1826.5193874999532,1827.6355805500061,1,2022-12-27-2111,VBDM,2021.2.0,60.02563095790019,
3_AF355_AF1203,right,right,0.8722351999604143,1,1829.635936799983,1830.6520638499642,1,2022-12-27-2111,VBDM,2021.2.0,60.02563095790019,
2_AF2003_AF1966,right,right,1.1479827999719419,1,1832.6540112000075,1833.902025349962,1,2022-12-27-2111,VBDM,2021.2.0,60.02563095790019,
3_AF1699_AF1816,right,right,1.332253300002776,1,1835.9056042999728,1837.3356079499936,1,2022-12-27-2111,VBDM,2021.2.0,60.02563095790019,
1_AF1825_AF932,left,left,1.3500461000367068,1,1839.337004299974,1840.7689460499678,1,2022-12-27-2111,VBDM,2021.2.0,60.02563095790019,
1_AF987_AF324,left,right,1.4129064999870025,0,1842.7688144999556,1844.2688057500054,1,2022-12-27-2111,VBDM,2021.2.0,60.02563095790019,
1_AF1834_AF2001,left,right,0.8957152999937534,0,1846.270697799977,1847.2688363500056,1,2022-12-27-2111,VBDM,2021.2.0,60.02563095790019,
1_AF1546_AF962,left,left,1.5740076000220142,1,1849.2692206999636,1850.9854247499607,1,2022-12-27-2111,VBDM,2021.2.0,60.02563095790019,
4_AF1832_AF1356,left,left,1.3660223999759182,1,1852.9869328999775,1854.5022815499688,1,2022-12-27-2111,VBDM,2021.2.0,60.02563095790019,
1_AF1162_AF1284,left,left,1.246800200024154,1,1856.5025289999903,1857.885610850004,1,2022-12-27-2111,VBDM,2021.2.0,60.02563095790019,
2_AF491_AF867,left,left,1.3245289000333287,1,1859.8899997999542,1861.352477049979,1,2022-12-27-2111,VBDM,2021.2.0,60.02563095790019,
1_AF2010_AF31,right,left,1.5511186000076123,0,1902.6855662000016,1904.3020878499956,1,2022-12-27-2111,VBDM,2021.2.0,60.02563095790019,
3_AF639_AF1396,left,left,0.851071499986574,1,1906.302771699964,1907.219049849955,1,2022-12-27-2111,VBDM,2021.2.0,60.02563095790019,
1_AF1296_AF897,right,right,1.0034259000094607,1,1909.2183492999757,1910.3187676499947,1,2022-12-27-2111,VBDM,2021.2.0,60.02563095790019,
3_AF1667_AF1798,left,left,0.8185540999984369,1,1912.318625099957,1913.2685231500072,1,2022-12-27-2111,VBDM,2021.2.0,60.02563095790019,
3_AF1203_AF324,left,left,1.3276862999773584,1,1915.2688482999802,1916.6853634499712,1,2022-12-27-2111,VBDM,2021.2.0,60.02563095790019,
3_AF433_AF1667,right,right,0.865951599960681,1,1918.685974699969,1919.6185238499893,1,2022-12-27-2111,VBDM,2021.2.0,60.02563095790019,
1_AF565_AF1576,left,left,1.2245468000182882,1,1921.6186607999844,1922.9517795499996,1,2022-12-27-2111,VBDM,2021.2.0,60.02563095790019,
1_AF2_AF600,right,right,0.7649808999849483,1,1924.9515612999676,1925.8354080499848,1,2022-12-27-2111,VBDM,2021.2.0,60.02563095790019,
1_AF2001_AF1335,right,right,0.9911785000003874,1,1927.8368995999917,1928.9186017499887,1,2022-12-27-2111,VBDM,2021.2.0,60.02563095790019,
1_AF582_AF1755,right,right,1.0973165000323206,1,1930.9200173999998,1932.1183432499529,1,2022-12-27-2111,VBDM,2021.2.0,60.02563095790019,
1_AF395_AF1585,right,right,1.0874050999991596,1,1934.1173964999616,1935.3186107499641,1,2022-12-27-2111,VBDM,2021.2.0,60.02563095790019,
2_AF1499_AF1456,left,left,1.1179629000253044,1,1937.3181928999838,1938.5518937499728,1,2022-12-27-2111,VBDM,2021.2.0,60.02563095790019,
1_AF593_AF1090,left,right,1.1155360999982804,0,1940.554373699997,1941.7854112499626,1,2022-12-27-2111,VBDM,2021.2.0,60.02563095790019,
3_AF1684_AF2010,left,left,1.2056281000259332,1,1943.7870943999733,1945.1351103499765,1,2022-12-27-2111,VBDM,2021.2.0,60.02563095790019,
1_AF1656_AF1977,right,right,0.823557699972298,1,1947.1384885999723,1948.1018173499615,1,2022-12-27-2111,VBDM,2021.2.0,60.02563095790019,
2_AF1396_AF1834,right,right,1.0020204000175,1,1950.1025819999631,1951.2018338500056,1,2022-12-27-2111,VBDM,2021.2.0,60.02563095790019,
3_AF1514_AF2004,left,right,1.044639800034929,0,1953.210243999958,1954.3687688499922,1,2022-12-27-2111,VBDM,2021.2.0,60.02563095790019,
1_AF1929_AF1643,left,left,1.172439599991776,1,1956.3758373999735,1957.6354079499724,1,2022-12-27-2111,VBDM,2021.2.0,60.02563095790019,
1_AF2008_AF1977,right,right,0.7041377000277862,1,1959.663297399995,1960.5020805500099,1,2022-12-27-2111,VBDM,2021.2.0,60.02563095790019,
2_AF2005_AF1006,left,left,0.9998583000269718,1,1962.5098777000094,1963.6350223500049,1,2022-12-27-2111,VBDM,2021.2.0,60.02563095790019,
1_AF2_AF1966,right,right,1.3312336000381038,1,1965.6352222999558,1967.0684876499581,1,2022-12-27-2111,VBDM,2021.2.0,60.02563095790019,
1_AF1884_AF593,right,right,1.3039666999829933,1,1969.068417100003,1970.4688174499897,1,2022-12-27-2111,VBDM,2021.2.0,60.02563095790019,
2_AF1828_AF1336,left,left,1.7509531999821775,1,1972.47038959997,1974.335332549992,1,2022-12-27-2111,VBDM,2021.2.0,60.02563095790019,
1_AF1090_AF1551,left,right,1.3423729999922216,0,1976.3347700999584,1977.7352337499615,1,2022-12-27-2111,VBDM,2021.2.0,60.02563095790019,
2_AF1356_AF1584,right,[],[],None,1979.7344009999651,1981.7519072499708,1,2022-12-27-2111,VBDM,2021.2.0,60.02563095790019,
4_AF1197_AF1560,left,left,1.1095800999901257,1,1983.7535248000058,1984.9518519499688,1,2022-12-27-2111,VBDM,2021.2.0,60.02563095790019,
1_AF433_AF1365,right,right,1.3399553999770433,1,1986.9520843999926,1988.3353857499897,1,2022-12-27-2111,VBDM,2021.2.0,60.02563095790019,
1_AF1006_AF1284,right,right,1.863601099990774,1,1990.334056199994,1992.2518157499726,1,2022-12-27-2111,VBDM,2021.2.0,60.02563095790019,
2_AF2010_AF1499,right,[],[],None,1994.2538121999823,1996.2685637499671,1,2022-12-27-2111,VBDM,2021.2.0,60.02563095790019,
1_AF597_AF1762,right,right,1.1518186000175774,1,1998.2694897999754,1999.5182976499782,1,2022-12-27-2111,VBDM,2021.2.0,60.02563095790019,
2_AF1798_AF593,right,right,1.3171206999686547,1,2001.5225998999667,2002.88497715001,1,2022-12-27-2111,VBDM,2021.2.0,60.02563095790019,
1_AF2001_AF1551,left,left,1.133350000018254,1,2004.886734700005,2006.0683150499826,1,2022-12-27-2111,VBDM,2021.2.0,60.02563095790019,
1_AF1532_AF1929,right,left,0.9097446000087075,0,2008.0679489999893,2009.0040133500006,1,2022-12-27-2111,VBDM,2021.2.0,60.02563095790019,
2_AF600_AF1798,left,left,1.1266975000035018,1,2011.005440399982,2012.151478749991,1,2022-12-27-2111,VBDM,2021.2.0,60.02563095790019,
4_AF900_AF1197,right,right,0.8326530000194907,1,2014.151260899962,2015.0187072499539,1,2022-12-27-2111,VBDM,2021.2.0,60.02563095790019,
3_AF1684_AF597,left,left,1.3659560999949463,1,2017.0226339999936,2018.4849777499912,1,2022-12-27-2111,VBDM,2021.2.0,60.02563095790019,
3_AF1336_AF1684,right,right,0.7744903999846429,1,2020.4865802999702,2021.3849549499573,1,2022-12-27-2111,VBDM,2021.2.0,60.02563095790019,
1_AF1813_AF1171,right,left,1.0325732000055723,0,2023.3863589999964,2024.4852197499713,1,2022-12-27-2111,VBDM,2021.2.0,60.02563095790019,
2_AF1584_AF1396,left,left,1.31377710000379,1,2026.4859620999778,2027.918121249997,1,2022-12-27-2111,VBDM,2021.2.0,60.02563095790019,
1_AF1734_AF1270,right,right,0.912922499992419,1,2029.9178533999948,2030.9349572499632,1,2022-12-27-2111,VBDM,2021.2.0,60.02563095790019,
2_AF1699_AF1720,right,left,1.4734152000164613,0,2032.9358264000039,2034.5350748499623,1,2022-12-27-2111,VBDM,2021.2.0,60.02563095790019,
3_AF1569_AF1684,right,right,0.8278526000212878,1,2036.5350996999769,2037.4015207499615,1,2022-12-27-2111,VBDM,2021.2.0,60.02563095790019,
4_AF1297_AF712,left,left,0.9924870999529958,1,2039.4012387999683,2040.4350381499971,1,2022-12-27-2111,VBDM,2021.2.0,60.02563095790019,
1_AF1828_AF31,left,left,1.034970799984876,1,2042.4345373999677,2043.5018229499692,1,2022-12-27-2111,VBDM,2021.2.0,60.02563095790019,
1_AF1064_AF1884,left,right,0.9023511999985203,0,2045.5027152999537,2046.535107349977,1,2022-12-27-2111,VBDM,2021.2.0,60.02563095790019,
3_AF582_AF1514,right,right,1.421605100040324,1,2048.5344054999878,2050.134902849968,1,2022-12-27-2111,VBDM,2021.2.0,60.02563095790019,
2_AF1569_AF1270,right,right,1.5349457999691367,1,2052.1348277999787,2053.751489849994,1,2022-12-27-2111,VBDM,2021.2.0,60.02563095790019,
1_AF784_AF1527,right,left,1.538819900015369,0,2055.7525324999588,2057.3686728499597,1,2022-12-27-2111,VBDM,2021.2.0,60.02563095790019,
3_AF1560_AF1154,right,right,0.9432577000115998,1,2059.370070600009,2060.451473449997,1,2022-12-27-2111,VBDM,2021.2.0,60.02563095790019,
3_AF1029_AF639,right,right,1.0879997000447474,1,2062.451271899976,2063.6013606499764,1,2022-12-27-2111,VBDM,2021.2.0,60.02563095790019,
2_AF1205_AF639,right,right,1.2395742000080645,1,2067.318553799996,2068.6348330499604,1,2022-12-27-2111,VBDM,2021.2.0,60.02563095790019,
3_AF1312_AF1982,left,left,1.047930600005202,1,2070.636092700006,2071.7849422500003,1,2022-12-27-2111,VBDM,2021.2.0,60.02563095790019,
2_AF1396_AF1828,right,right,1.1637729000067338,1,2073.783338100009,2075.068111750006,1,2022-12-27-2111,VBDM,2021.2.0,60.02563095790019,
4_AF784_AF1297,right,right,1.0660912000457756,1,2077.0685764999944,2078.218372249976,1,2022-12-27-2111,VBDM,2021.2.0,60.02563095790019,
2_AF1714_AF1789,left,left,1.2896458000177518,1,2080.2198422999936,2081.668283649953,1,2022-12-27-2111,VBDM,2021.2.0,60.02563095790019,
3_AF1006_AF1312,right,right,0.9592855999944732,1,2083.6688166999957,2084.7517569499905,1,2022-12-27-2111,VBDM,2021.2.0,60.02563095790019,
2_AF1551_AF41,right,right,0.9497381999972276,1,2086.7531574000022,2087.8013562499546,1,2022-12-27-2111,VBDM,2021.2.0,60.02563095790019,
2_AF1834_AF1798,left,left,0.9302366999909282,1,2089.803442799952,2090.867852149997,1,2022-12-27-2111,VBDM,2021.2.0,60.02563095790019,
4_AF1197_AF1336,left,left,0.9478037999942899,1,2092.8696213999647,2093.9682533500018,1,2022-12-27-2111,VBDM,2021.2.0,60.02563095790019,
3_AF1811_AF1589,right,right,1.199850199976936,1,2095.96884039999,2097.2848003499676,1,2022-12-27-2111,VBDM,2021.2.0,60.02563095790019,
1_AF2008_AF582,left,left,0.9905905000050552,1,2099.306068899983,2100.4179901499883,1,2022-12-27-2111,VBDM,2021.2.0,60.02563095790019,
1_AF1501_AF1171,left,left,1.1697082999744453,1,2102.419399599952,2103.7013460499584,1,2022-12-27-2111,VBDM,2021.2.0,60.02563095790019,
3_AF1203_AF1551,left,left,0.9158545999671333,1,2105.702767299954,2106.7348056499613,1,2022-12-27-2111,VBDM,2021.2.0,60.02563095790019,
2_AF1725_AF110,left,left,1.814698199974373,1,2108.7352013000054,2110.7012788499705,1,2022-12-27-2111,VBDM,2021.2.0,60.02563095790019,
1_AF565_AF1977,right,right,1.237788000027649,1,2112.7023222999997,2114.7179876499576,1,2022-12-27-2111,VBDM,2021.2.0,60.02563095790019,
2_AF1903_AF1966,right,right,1.2811802999931388,1,2116.7160924999625,2118.101339749992,1,2022-12-27-2111,VBDM,2021.2.0,60.02563095790019,
1_AF395_AF1755,right,left,1.120820299955085,0,2120.1016181999585,2121.318064949999,1,2022-12-27-2111,VBDM,2021.2.0,60.02563095790019,
3_AF1468_AF1589,right,left,1.5729759999667294,0,2123.323354299995,2124.984617249982,1,2022-12-27-2111,VBDM,2021.2.0,60.02563095790019,
1_AF2_AF395,left,left,1.4163941000006162,1,2126.984122099995,2128.484727150004,1,2022-12-27-2111,VBDM,2021.2.0,60.02563095790019,
1_AF1284_AF470,left,right,0.8855912000290118,0,2130.4841292999918,2131.4512611500104,1,2022-12-27-2111,VBDM,2021.2.0,60.02563095790019,
1_AF582_AF1171,right,right,1.3608087999746203,1,2133.450677399989,2134.8845503499615,1,2022-12-27-2111,VBDM,2021.2.0,60.02563095790019,
2_AF324_AF1929,right,right,0.9672576999873854,1,2136.883893799968,2137.9684910500073,1,2022-12-27-2111,VBDM,2021.2.0,60.02563095790019,
1_AF897_AF395,left,[],[],None,2139.971135300002,2141.984961249982,1,2022-12-27-2111,VBDM,2021.2.0,60.02563095790019,
1_AF1735_AF1171,right,right,1.6944691999815404,1,2143.9849632999976,2145.8010711499956,1,2022-12-27-2111,VBDM,2021.2.0,60.02563095790019,
2_AF41_AF433,left,left,1.4144260000321083,1,2147.8011176,2149.3182243499905,1,2022-12-27-2111,VBDM,2021.2.0,60.02563095790019,
2_AF470_AF491,right,right,0.9609570999746211,1,2151.3194226999767,2152.3848056499846,1,2022-12-27-2111,VBDM,2021.2.0,60.02563095790019,
1_AF244_AF724,right,right,1.5168577000149526,1,2154.3854356000083,2156.001247749955,1,2022-12-27-2111,VBDM,2021.2.0,60.02563095790019,
1_AF1527_AF1551,left,right,1.2758863000199199,0,2158.0011590999784,2159.334668249998,1,2022-12-27-2111,VBDM,2021.2.0,60.02563095790019,
3_AF1006_AF1816,right,right,1.0897005999577232,1,2161.337701499986,2162.5177956499974,1,2022-12-27-2111,VBDM,2021.2.0,60.02563095790019,
1_AF1371_AF2011,right,[],[],None,2164.5204696999863,2166.5350332499947,1,2022-12-27-2111,VBDM,2021.2.0,60.02563095790019,
1_AF1233_AF2001,left,right,1.2549475999549031,0,2168.5380881999736,2169.8345812499756,1,2022-12-27-2111,VBDM,2021.2.0,60.02563095790019,
3_AF1296_AF1816,right,right,0.8840074999607168,1,2171.835290499963,2172.8346396499546,1,2022-12-27-2111,VBDM,2021.2.0,60.02563095790019,
4_AF722_AF685,right,right,0.6703194000292569,1,2174.8382832999923,2175.5681705499883,1,2022-12-27-2111,VBDM,2021.2.0,60.02563095790019,
1_AF2009_AF1720,right,left,1.0665982000064105,0,2177.5691830999567,2178.7010015499545,1,2022-12-27-2111,VBDM,2021.2.0,60.02563095790019,
1_AF1813_AF1365,right,left,1.1073380999732763,0,2180.7009309999994,2181.8845636500046,1,2022-12-27-2111,VBDM,2021.2.0,60.02563095790019,
3_AF324_AF1589,right,[],[],None,2183.885392999975,2185.9016562500037,1,2022-12-27-2111,VBDM,2021.2.0,60.02563095790019,
4_AF685_AF1798,left,left,0.8203775000292808,1,2187.9027278999565,2188.818366249965,1,2022-12-27-2111,VBDM,2021.2.0,60.02563095790019,
2_AF1659_AF1812,left,right,0.8082432000082918,0,2190.8175137999933,2191.7177854499896,1,2022-12-27-2111,VBDM,2021.2.0,60.02563095790019,
1_AF1335_AF1755,left,left,1.117676499998197,1,2193.71835879999,2194.9846298499615,1,2022-12-27-2111,VBDM,2021.2.0,60.02563095790019,
3_AF1419_AF1312,right,right,1.0246535000042059,1,2196.9839005999966,2198.101024249976,1,2022-12-27-2111,VBDM,2021.2.0,60.02563095790019,
2_AF2005_AF1789,left,left,0.913568000018131,1,2200.1024558999925,2201.1679184499662,1,2022-12-27-2111,VBDM,2021.2.0,60.02563095790019,
2_AF1720_AF2003,left,right,1.5681985999690369,0,2203.1697730000014,2204.80111494998,1,2022-12-27-2111,VBDM,2021.2.0,60.02563095790019,
4_AF1789_AF685,right,right,0.7012059999979101,1,2206.801915499964,2207.667494950001,1,2022-12-27-2111,VBDM,2021.2.0,60.02563095790019,
3_AF1659_AF1699,left,left,1.0922601000056602,1,2209.673560699972,2210.901268449961,1,2022-12-27-2111,VBDM,2021.2.0,60.02563095790019,
2_AF967_AF1734,left,left,1.3058083999785595,1,2212.9016535999835,2214.3014350499725,1,2022-12-27-2111,VBDM,2021.2.0,60.02563095790019,
2_AF722_AF1725,right,right,1.4331372000160627,1,2216.3018222999526,2217.767948349996,1,2022-12-27-2111,VBDM,2021.2.0,60.02563095790019,
3_AF1667_AF1456,left,left,0.9941538999555632,1,2219.768917599984,2220.867717849964,1,2022-12-27-2111,VBDM,2021.2.0,60.02563095790019,
1_AF1090_AF1712,left,left,0.8812758999993093,1,2222.8672071999754,2223.8344441499794,1,2022-12-27-2111,VBDM,2021.2.0,60.02563095790019,
1_AF1499_AF1284,left,left,1.9012048000004143,1,2225.83723569999,2227.8176955499803,1,2022-12-27-2111,VBDM,2021.2.0,60.02563095790019,
2_AF1828_AF244,left,left,1.506950200011488,1,2229.817387399962,2231.4343790499843,1,2022-12-27-2111,VBDM,2021.2.0,60.02563095790019,
3_AF1207_AF1029,left,right,1.408368900010828,0,2234.7010978999897,2236.1676572499564,1,2022-12-27-2111,VBDM,2021.2.0,60.02563095790019,
2_AF1813_AF1064,right,left,0.8749584999750368,0,2238.1665089000016,2239.117491149984,1,2022-12-27-2111,VBDM,2021.2.0,60.02563095790019,
2_AF1029_AF2005,right,left,1.4415456000133418,0,2241.11733909999,2242.6178161499556,1,2022-12-27-2111,VBDM,2021.2.0,60.02563095790019,
3_AF355_AF1207,right,right,0.9780506999813952,1,2244.618464600004,2245.66781585,1,2022-12-27-2111,VBDM,2021.2.0,60.02563095790019,
2_AF1908_AF1576,left,left,1.36530840001069,1,2247.6725659999647,2249.1010277500027,1,2022-12-27-2111,VBDM,2021.2.0,60.02563095790019,
4_AF395_AF1837,right,right,0.9081715000211261,1,2251.100425099954,2252.1009657499962,1,2022-12-27-2111,VBDM,2021.2.0,60.02563095790019,
1_AF1233_AF724,left,right,1.31877249997342,0,2254.102676099981,2255.4676264500013,1,2022-12-27-2111,VBDM,2021.2.0,60.02563095790019,
1_AF1532_AF1064,right,left,0.9179872999666259,0,2257.4674548999756,2258.4675168499816,1,2022-12-27-2111,VBDM,2021.2.0,60.02563095790019,
1_AF1908_AF1171,left,left,1.0563143999897875,1,2260.4707442999934,2261.600984449964,1,2022-12-27-2111,VBDM,2021.2.0,60.02563095790019,
2_AF1233_AF1735,left,left,1.0448431999539025,1,2263.601642899972,2264.8008850499755,1,2022-12-27-2111,VBDM,2021.2.0,60.02563095790019,
3_AF244_AF1312,right,right,1.252923100022599,1,2266.8002905999892,2268.134361249977,1,2022-12-27-2111,VBDM,2021.2.0,60.02563095790019,
1_AF1405_AF1734,left,left,1.0754458000301383,1,2270.135669399984,2271.2508596499683,1,2022-12-27-2111,VBDM,2021.2.0,60.02563095790019,
4_AF1296_AF1837,right,right,0.9232959999935701,1,2273.2488412999664,2274.217478949984,1,2022-12-27-2111,VBDM,2021.2.0,60.02563095790019,
3_AF1659_AF1560,left,left,0.8352114000008442,1,2276.217899099982,2277.184661449981,1,2022-12-27-2111,VBDM,2021.2.0,60.02563095790019,
4_AF685_AF1371,left,left,0.8965630999882706,1,2279.185023900005,2280.1676030500093,1,2022-12-27-2111,VBDM,2021.2.0,60.02563095790019,
3_AF2004_AF1203,right,right,0.9843518999987282,1,2282.1732671000063,2283.217687550001,1,2022-12-27-2111,VBDM,2021.2.0,60.02563095790019,
2_AF1006_AF2012,right,right,1.656042900052853,1,2285.2281740999897,2286.9507865500054,1,2022-12-27-2111,VBDM,2021.2.0,60.02563095790019,
1_AF1065_AF1659,right,right,0.96199969999725,1,2288.951269299956,2290.0176008499693,1,2022-12-27-2111,VBDM,2021.2.0,60.02563095790019,
2_AF1270_AF1371,left,left,0.8528634000103921,1,2292.016768599977,2293.0009744499694,1,2022-12-27-2111,VBDM,2021.2.0,60.02563095790019,
3_AF784_AF1203,right,right,0.8162276000366546,1,2295.001245099993,2295.951369449962,1,2022-12-27-2111,VBDM,2021.2.0,60.02563095790019,
4_AF470_AF1832,right,right,1.0616291999467649,1,2297.950540699996,2299.0839690499706,1,2022-12-27-2111,VBDM,2021.2.0,60.02563095790019,
3_AF1684_AF110,left,left,1.0375742999603972,1,2301.086310099985,2302.1840999499545,1,2022-12-27-2111,VBDM,2021.2.0,60.02563095790019,
2_AF932_AF1966,right,right,1.278316299954895,1,2304.185459900007,2305.5534498500056,1,2022-12-27-2111,VBDM,2021.2.0,60.02563095790019,
4_AF1832_AF1735,left,left,0.833530800009612,1,2307.5546021999908,2308.484447349969,1,2022-12-27-2111,VBDM,2021.2.0,60.02563095790019,
2_AF600_AF569,left,left,1.051408100000117,1,2310.485367299989,2311.617275149969,1,2022-12-27-2111,VBDM,2021.2.0,60.02563095790019,
3_AF1312_AF597,left,left,0.9064294999698177,1,2313.6157669000095,2314.5672738499707,1,2022-12-27-2111,VBDM,2021.2.0,60.02563095790019,
1_AF110_AF1656,right,right,1.0436161999823526,1,2316.5680607999675,2317.7176330499933,1,2022-12-27-2111,VBDM,2021.2.0,60.02563095790019,
2_AF1834_AF244,left,left,1.3005997999571264,1,2319.7181727999705,2321.134259249957,1,2022-12-27-2111,VBDM,2021.2.0,60.02563095790019,
3_AF569_AF1312,right,right,0.8752855999628082,1,2323.1344896999653,2324.0841693499824,1,2022-12-27-2111,VBDM,2021.2.0,60.02563095790019,
1_AF1755_AF1714,right,right,1.263462900009472,1,2326.084094699996,2327.4341364499996,1,2022-12-27-2111,VBDM,2021.2.0,60.02563095790019,
1_AF1585_AF1929,right,right,1.9564247999805957,1,2329.4347475999966,2331.45076024998,1,2022-12-27-2111,VBDM,2021.2.0,60.02563095790019,
3_AF1589_AF784,left,left,0.9931283000041731,1,2333.4577013999806,2334.517179049959,1,2022-12-27-2111,VBDM,2021.2.0,60.02563095790019,
2_AF434_AF593,right,right,1.1528172999969684,1,2336.515995899972,2337.750742550008,1,2022-12-27-2111,VBDM,2021.2.0,60.02563095790019,
2_AF1560_AF1499,right,[],[],None,2339.7501695999526,2341.767367749999,1,2022-12-27-2111,VBDM,2021.2.0,60.02563095790019,
1_AF2009_AF1371,left,left,1.1758917999686673,1,2343.7679486999987,2345.0509840499726,1,2022-12-27-2111,VBDM,2021.2.0,60.02563095790019,
3_AF1514_AF324,left,left,1.2947913000243716,1,2347.0531437000027,2348.4507894499693,1,2022-12-27-2111,VBDM,2021.2.0,60.02563095790019,
1_AF1675_AF244,left,left,1.5574645000160672,1,2350.450993400009,2352.1340207500034,1,2022-12-27-2111,VBDM,2021.2.0,60.02563095790019,
2_AF41_AF1789,left,[],[],None,2354.1347208999796,2356.1509364499943,1,2022-12-27-2111,VBDM,2021.2.0,60.02563095790019,
2_AF1560_AF1908,right,right,1.8805700999801047,1,2358.1529171,2360.1505476500024,1,2022-12-27-2111,VBDM,2021.2.0,60.02563095790019,
2_AF1371_AF1966,right,[],[],None,2362.1495881999726,2364.1676559500047,1,2022-12-27-2111,VBDM,2021.2.0,60.02563095790019,
3_AF1816_AF1456,left,left,1.0894157000002451,1,2366.167023499962,2367.3007719499874,1,2022-12-27-2111,VBDM,2021.2.0,60.02563095790019,
2_AF1584_AF962,left,left,1.5188510000007227,1,2369.3004177999683,2370.900893349957,1,2022-12-27-2111,VBDM,2021.2.0,60.02563095790019,
4_AF434_AF1197,right,right,1.0583607000298798,1,2372.9011413999833,2374.0839922499727,1,2022-12-27-2111,VBDM,2021.2.0,60.02563095790019,
1_AF1666_AF1560,left,left,1.257947200036142,1,2376.0847737999866,2377.433926949976,1,2022-12-27-2111,VBDM,2021.2.0,60.02563095790019,
2_AF1569_AF715,right,left,1.2610752999898978,0,2379.4348400000017,2380.8173641499598,1,2022-12-27-2111,VBDM,2021.2.0,60.02563095790019,
1_AF1365_AF1362,right,right,1.590503000013996,1,2382.8177262999816,2384.4507590499707,1,2022-12-27-2111,VBDM,2021.2.0,60.02563095790019,
2_AF491_AF110,left,left,1.0772252000169829,1,2386.4508716999553,2387.617527049966,1,2022-12-27-2111,VBDM,2021.2.0,60.02563095790019,
2_AF715_AF1798,left,left,0.9562213000026532,1,2389.618356799998,2390.667256749992,1,2022-12-27-2111,VBDM,2021.2.0,60.02563095790019,
3_AF2003_AF967,right,right,1.1062151999794878,1,2392.6699483999982,2393.9005849499954,1,2022-12-27-2111,VBDM,2021.2.0,60.02563095790019,
4_AF1297_AF722,left,left,1.183062800031621,1,2395.899688399979,2397.1505023500067,1,2022-12-27-2111,VBDM,2021.2.0,60.02563095790019,
3_AF2004_AF1154,right,right,1.5713938000262715,1,2434.7845422999817,2436.417256649991,1,2022-12-27-2111,VBDM,2021.2.0,60.02563095790019,
2_AF434_AF1362,right,[],[],None,2438.4177336999564,2440.4339441499906,1,2022-12-27-2111,VBDM,2021.2.0,60.02563095790019,
2_AF41_AF784,left,left,1.5715438000042923,1,2442.4344711999875,2444.050751050003,1,2022-12-27-2111,VBDM,2021.2.0,60.02563095790019,
1_AF1270_AF987,left,left,1.6354395000380464,1,2446.051826299983,2447.8005849499605,1,2022-12-27-2111,VBDM,2021.2.0,60.02563095790019,
1_AF2008_AF1798,left,left,1.0218771999934688,1,2449.8149753999896,2450.9172171499813,1,2022-12-27-2111,VBDM,2021.2.0,60.02563095790019,
1_AF1643_AF1065,right,right,1.269918299978599,1,2452.920699399954,2454.3176908500027,1,2022-12-27-2111,VBDM,2021.2.0,60.02563095790019,
3_AF1154_AF2003,left,left,0.6742008999572136,1,2456.320745999983,2457.1171958500054,1,2022-12-27-2111,VBDM,2021.2.0,60.02563095790019,
1_AF2009_AF1551,left,left,1.0597142000333406,1,2459.1174090999993,2460.2671021499555,1,2022-12-27-2111,VBDM,2021.2.0,60.02563095790019,
1_AF1643_AF491,right,right,0.7119830999872647,1,2462.2675991999567,2463.117205549963,1,2022-12-27-2111,VBDM,2021.2.0,60.02563095790019,
1_AF1546_AF2005,right,right,0.9684902000008151,1,2465.1179179999745,2466.167202449986,1,2022-12-27-2111,VBDM,2021.2.0,60.02563095790019,
4_AF1197_AF1296,left,left,0.9479295000201091,1,2468.167820999981,2469.21728864999,1,2022-12-27-2111,VBDM,2021.2.0,60.02563095790019,
1_AF1675_AF1720,right,left,0.9677845999831334,0,2471.2160233999602,2472.2670139499824,1,2022-12-27-2111,VBDM,2021.2.0,60.02563095790019,
4_AF1197_AF1371,left,left,0.8178211999475025,1,2474.267437500006,2475.150389049959,1,2022-12-27-2111,VBDM,2021.2.0,60.02563095790019,
1_AF1725_AF1284,left,left,0.7633232000516728,1,2477.1495364999864,2478.0339622499887,1,2022-12-27-2111,VBDM,2021.2.0,60.02563095790019,
1_AF1762_AF1560,left,left,1.0562935000052676,1,2480.036594300007,2481.183701150003,1,2022-12-27-2111,VBDM,2021.2.0,60.02563095790019,
2_AF1270_AF1955,left,left,1.1042959000333212,1,2483.185063599958,2484.4169919499545,1,2022-12-27-2111,VBDM,2021.2.0,60.02563095790019,
1_AF2003_AF565,right,right,1.8232369999750517,1,2486.4176764999866,2488.3338059500093,1,2022-12-27-2111,VBDM,2021.2.0,60.02563095790019,
1_AF470_AF1734,right,left,1.0181784000014886,0,2490.3349084999645,2491.416996749991,1,2022-12-27-2111,VBDM,2021.2.0,60.02563095790019,
1_AF1434_AF41,right,right,1.4172770000295714,1,2493.416654700006,2494.900639750005,1,2022-12-27-2111,VBDM,2021.2.0,60.02563095790019,
3_AF1667_AF582,left,left,1.252569600008428,1,2496.903295499971,2498.250664649997,1,2022-12-27-2111,VBDM,2021.2.0,60.02563095790019,
1_AF1955_AF1812,right,left,1.3551015999983065,0,2500.251057599962,2501.700640850002,1,2022-12-27-2111,VBDM,2021.2.0,60.02563095790019,
1_AF1468_AF2001,right,right,1.39827459998196,1,2503.7023695999524,2505.2505499499966,1,2022-12-27-2111,VBDM,2021.2.0,60.02563095790019,
1_AF1666_AF597,left,left,1.0744936999981292,1,2507.251934400003,2508.400395250006,1,2022-12-27-2111,VBDM,2021.2.0,60.02563095790019,
2_AF1712_AF1638,right,right,1.533241699973587,1,2510.4005994999898,2512.06694265001,1,2022-12-27-2111,VBDM,2021.2.0,60.02563095790019,
3_AF1735_AF1667,right,right,0.9321237999829464,1,2514.067467599991,2515.21729494998,1,2022-12-27-2111,VBDM,2021.2.0,60.02563095790019,
4_AF2004_AF1832,right,right,1.1473823999986053,1,2517.2214870000025,2518.466621749976,1,2022-12-27-2111,VBDM,2021.2.0,60.02563095790019,
2_AF1233_AF433,left,right,1.7195290999952704,0,2520.4673057000036,2522.2693445499754,1,2022-12-27-2111,VBDM,2021.2.0,60.02563095790019,
1_AF1365_AF1064,right,left,1.2768672999809496,0,2524.2692045999574,2525.633669050003,1,2022-12-27-2111,VBDM,2021.2.0,60.02563095790019,
1_AF1689_AF987,right,right,1.549067499989178,1,2527.634042299993,2529.3169737499557,1,2022-12-27-2111,VBDM,2021.2.0,60.02563095790019,
1_AF2011_AF1955,left,right,1.2631013999925926,0,2531.318476699991,2532.7004309499753,1,2022-12-27-2111,VBDM,2021.2.0,60.02563095790019,
1_AF1405_AF1675,left,left,1.9298326999996789,1,2534.700949699967,2536.7169506499777,1,2022-12-27-2111,VBDM,2021.2.0,60.02563095790019,
4_AF1396_AF1832,right,right,1.1331028999993578,1,2538.7173885999946,2539.9502194499946,1,2022-12-27-2111,VBDM,2021.2.0,60.02563095790019,
1_AF1762_AF1966,right,left,0.9053032000083476,0,2541.951423099963,2542.983747349994,1,2022-12-27-2111,VBDM,2021.2.0,60.02563095790019,
2_AF932_AF1714,right,[],[],None,2544.9847456999705,2547.0007128499565,1,2022-12-27-2111,VBDM,2021.2.0,60.02563095790019,
4_AF1356_AF685,right,right,0.8295253000105731,1,2549.0020210999646,2549.9501377499546,1,2022-12-27-2111,VBDM,2021.2.0,60.02563095790019,
4_AF1832_AF1699,left,left,1.1576079999795184,1,2551.9515717999893,2553.2334137499565,1,2022-12-27-2111,VBDM,2021.2.0,60.02563095790019,
1_AF959_AF962,left,left,1.4017968000262044,1,2555.2331732999883,2556.7335082499776,1,2022-12-27-2111,VBDM,2021.2.0,60.02563095790019,
2_AF1977_AF784,left,left,1.2074765000143088,1,2558.7338917999878,2560.1003285499755,1,2022-12-27-2111,VBDM,2021.2.0,60.02563095790019,
3_AF1514_AF867,left,left,1.0748062999919057,1,2562.1003853,2563.3337402499747,1,2022-12-27-2111,VBDM,2021.2.0,60.02563095790019,
2_AF2006_AF1712,left,left,1.8498874999932013,1,2565.335423499986,2567.316569849965,1,2022-12-27-2111,VBDM,2021.2.0,60.02563095790019,
3_AF1816_AF1735,left,left,1.0799737999914214,1,2569.3168562999927,2570.516614049964,1,2022-12-27-2111,VBDM,2021.2.0,60.02563095790019,
2_AF1725_AF1813,left,right,1.1736145000322722,0,2572.515913399984,2573.799956850009,1,2022-12-27-2111,VBDM,2021.2.0,60.02563095790019,
1_AF1468_AF1643,right,right,1.5306091999518685,1,2575.8040927999537,2577.4334032500046,1,2022-12-27-2111,VBDM,2021.2.0,60.02563095790019,
3_AF2010_AF1659,right,right,1.6582071000011638,1,2579.435185999959,2581.200131749967,1,2022-12-27-2111,VBDM,2021.2.0,60.02563095790019,
1_AF1456_AF1812,right,right,1.198550199973397,1,2583.200636799971,2584.5168680499773,1,2022-12-27-2111,VBDM,2021.2.0,60.02563095790019,
2_AF1546_AF1207,right,right,0.9497939999564551,1,2586.516239699966,2587.6333997499896,1,2022-12-27-2111,VBDM,2021.2.0,60.02563095790019,
1_AF434_AF1669,right,right,1.5702270000474527,1,2589.63293349999,2591.2998541499837,1,2022-12-27-2111,VBDM,2021.2.0,60.02563095790019,
3_AF1667_AF1982,left,left,1.1733407999854535,1,2593.2988787000068,2594.600087950006,1,2022-12-27-2111,VBDM,2021.2.0,60.02563095790019,
4_AF1832_AF1569,left,right,0.9376469000126235,0,2596.600669999956,2597.783416249964,1,2022-12-27-2111,VBDM,2021.2.0,60.02563095790019,
2_AF244_AF2006,right,right,1.0826625999761745,1,2599.786038499966,2601.033380649984,1,2022-12-27-2111,VBDM,2021.2.0,60.02563095790019,
1_AF1356_AF1532,right,right,2.0733305000467226,1,2611.8843537999783,2614.0332046499825,1,2022-12-27-2111,VBDM,2021.2.0,60.02563095790019,
2_AF597_AF1335,right,right,2.853403699991759,1,2616.030644099985,2618.999977450003,1,2022-12-27-2111,VBDM,2021.2.0,60.02563095790019,
1_AF1675_AF1270,right,right,2.614381899998989,1,2620.9978668999975,2623.6669314499595,1,2022-12-27-2111,VBDM,2021.2.0,60.02563095790019,
4_AF2003_AF1837,right,right,0.8927818000083789,1,2625.665855399973,2626.6999603500008,1,2022-12-27-2111,VBDM,2021.2.0,60.02563095790019,
1_AF1955_AF1284,right,left,0.9001459999708459,0,2628.6985982999904,2629.699951549992,1,2022-12-27-2111,VBDM,2021.2.0,60.02563095790019,
3_AF967_AF597,left,right,1.1899092000094242,0,2631.6977319999714,2633.033309349965,1,2022-12-27-2111,VBDM,2021.2.0,60.02563095790019,
2_AF1468_AF593,right,right,1.0155550999916159,1,2635.0296816999908,2636.183823450003,1,2022-12-27-2111,VBDM,2021.2.0,60.02563095790019,
1_AF1977_AF1675,left,left,1.661063599982299,1,2638.1810905999737,2639.9500316499616,1,2022-12-27-2111,VBDM,2021.2.0,60.02563095790019,
1_AF1090_AF962,left,left,1.321022299991455,1,2641.948566199979,2643.3834135499783,1,2022-12-27-2111,VBDM,2021.2.0,60.02563095790019,
1_AF897_AF1405,right,right,0.9901013000053354,1,2645.382586199965,2646.5332552499603,1,2022-12-27-2111,VBDM,2021.2.0,60.02563095790019,
4_AF685_AF470,left,left,1.2252609999850392,1,2648.531274299952,2649.8667697499623,1,2022-12-27-2111,VBDM,2021.2.0,60.02563095790019,
2_AF1689_AF1233,right,left,3.3523511000094004,0,2651.864349099982,2655.3339189499966,1,2022-12-27-2111,VBDM,2021.2.0,60.02563095790019,
1_AF1825_AF1362,right,left,1.6475410999846645,0,2657.331830899988,2659.099833849992,1,2022-12-27-2111,VBDM,2021.2.0,60.02563095790019,
1_AF987_AF491,right,right,1.070404600002803,1,2661.097331099969,2662.2665090499795,1,2022-12-27-2111,VBDM,2021.2.0,60.02563095790019,
4_AF1297_AF932,left,left,1.1219159999745898,1,2664.2642829999677,2665.48342075001,1,2022-12-27-2111,VBDM,2021.2.0,60.02563095790019,
1_AF2008_AF1551,left,right,1.4519884000183083,0,2667.4972012999933,2669.083527049981,1,2022-12-27-2111,VBDM,2021.2.0,60.02563095790019,
3_AF1659_AF597,left,left,1.0168894999660552,1,2671.0832634999533,2672.2333666500053,1,2022-12-27-2111,VBDM,2021.2.0,60.02563095790019,
2_AF1356_AF1335,right,right,1.1105666999937966,1,2674.2305006000097,2675.483355949982,1,2022-12-27-2111,VBDM,2021.2.0,60.02563095790019,
2_AF582_AF1828,right,right,1.9229059999925084,1,2677.4817266999744,2679.4834983499604,1,2022-12-27-2111,VBDM,2021.2.0,60.02563095790019,
1_AF897_AF2012,right,right,2.6633598000044003,1,2681.488806499983,2684.3539191499585,1,2022-12-27-2111,VBDM,2021.2.0,60.02563095790019,
2_AF1335_AF2010,left,left,1.6169367000111379,1,2686.352531499986,2688.1000662499573,1,2022-12-27-2111,VBDM,2021.2.0,60.02563095790019,
1_AF1284_AF1468,left,right,0.9307241999777034,0,2690.0980910999933,2691.266709949996,1,2022-12-27-2111,VBDM,2021.2.0,60.02563095790019,
1_AF1825_AF1270,right,right,1.0132737000240013,1,2693.2637456000084,2694.3997654499835,1,2022-12-27-2111,VBDM,2021.2.0,60.02563095790019,
2_AF2006_AF1811,left,left,1.658413400000427,1,2696.3987244999735,2698.216952149989,1,2022-12-27-2111,VBDM,2021.2.0,60.02563095790019,
3_AF1576_AF1514,right,right,1.4994396999827586,1,2700.2185164999682,2701.866652550001,1,2022-12-27-2111,VBDM,2021.2.0,60.02563095790019,
1_AF1755_AF1982,left,left,2.0693636999931186,1,2703.86369009997,2706.050176549994,1,2022-12-27-2111,VBDM,2021.2.0,60.02563095790019,
3_AF722_AF1514,right,right,3.2174339999910444,1,2708.0475286999717,2711.3666867499705,1,2022-12-27-2111,VBDM,2021.2.0,60.02563095790019,
1_AF1903_AF31,right,left,1.478514600021299,0,2713.363356799993,2714.983487349993,1,2022-12-27-2111,VBDM,2021.2.0,60.02563095790019,
1_AF2009_AF110,left,left,1.0443622000166215,1,2716.984941100003,2718.166767149989,1,2022-12-27-2111,VBDM,2021.2.0,60.02563095790019,
1_AF1090_AF41,right,right,1.5400686000357382,1,2720.164281799982,2721.816188549972,1,2022-12-27-2111,VBDM,2021.2.0,60.02563095790019,
1_AF1434_AF1270,right,right,1.1251919000060298,1,2723.812776000006,2725.0499436499667,1,2022-12-27-2111,VBDM,2021.2.0,60.02563095790019,
2_AF2012_AF2010,left,right,1.639407199982088,0,2727.0548745999695,2728.7832833499997,1,2022-12-27-2111,VBDM,2021.2.0,60.02563095790019,
2_AF1335_AF1903,left,left,1.4381545000360347,1,2730.7821276999894,2732.400203450001,1,2022-12-27-2111,VBDM,2021.2.0,60.02563095790019,
2_AF1468_AF1828,right,right,2.592496299999766,1,2734.397608499974,2737.1496646499727,1,2022-12-27-2111,VBDM,2021.2.0,60.02563095790019,
1_AF1365_AF244,left,left,3.5348179999855347,1,2739.147836499964,2742.783098749991,1,2022-12-27-2111,VBDM,2021.2.0,60.02563095790019,
2_AF355_AF1405,right,right,1.2552937000291422,1,2744.7795543999528,2746.18292604998,1,2022-12-27-2111,VBDM,2021.2.0,60.02563095790019,
1_AF1532_AF2004,left,left,2.1793097000336275,1,2748.18372500001,2750.533089549979,1,2022-12-27-2111,VBDM,2021.2.0,60.02563095790019,
2_AF722_AF2012,right,left,1.5836029999773018,0,2752.535841199977,2754.283218549972,1,2022-12-27-2111,VBDM,2021.2.0,60.02563095790019,
3_AF1356_AF1667,right,right,0.9802578000235371,1,2756.282093499962,2757.4163354499615,1,2022-12-27-2111,VBDM,2021.2.0,60.02563095790019,
2_AF1203_AF1656,left,left,1.1446613000007346,1,2759.4138625999913,2760.66643355001,1,2022-12-27-2111,VBDM,2021.2.0,60.02563095790019,
2_AF1828_AF1296,left,left,1.7850741999573074,1,2762.663749500003,2764.549417649978,1,2022-12-27-2111,VBDM,2021.2.0,60.02563095790019,
1_AF2005_AF1365,left,right,2.2800818999530748,0,2766.547802199959,2768.9998280499713,1,2022-12-27-2111,VBDM,2021.2.0,60.02563095790019,
3_AF1811_AF967,right,right,3.409624000021722,1,2770.998961999954,2774.5501551500056,1,2022-12-27-2111,VBDM,2021.2.0,60.02563095790019,
1_AF1834_AF987,left,left,2.114368900016416,1,2776.5473477999913,2778.783324549964,1,2022-12-27-2111,VBDM,2021.2.0,60.02563095790019,
4_AF110_AF1832,right,right,1.224408600013703,1,2780.780861200008,2782.116187949956,1,2022-12-27-2111,VBDM,2021.2.0,60.02563095790019,
3_AF1154_AF784,left,left,1.0119546999922022,1,2784.113035999995,2785.2328645499656,1,2022-12-27-2111,VBDM,2021.2.0,60.02563095790019,
1_AF867_AF724,right,right,0.77734720002627,1,2787.236035799957,2788.166283949977,1,2022-12-27-2111,VBDM,2021.2.0,60.02563095790019,
1_AF2006_AF1546,left,left,1.1266325999749824,1,2790.165438900003,2791.3830479499884,1,2022-12-27-2111,VBDM,2021.2.0,60.02563095790019,
2_AF1828_AF433,left,right,1.789078600006178,0,2793.3865268999944,2795.2495551499887,1,2022-12-27-2111,VBDM,2021.2.0,60.02563095790019,
2_AF597_AF1725,right,right,1.5439235999947414,1,2797.246006099973,2798.932895749982,1,2022-12-27-2111,VBDM,2021.2.0,60.02563095790019,
3_AF1296_AF1312,right,right,1.7412514999741688,1,2830.283285099955,2832.333175649983,1,2022-12-27-2111,VBDM,2021.2.0,60.02563095790019,
2_AF1551_AF1064,right,right,1.4210468999808654,1,2834.330947899958,2835.882954349974,1,2022-12-27-2111,VBDM,2021.2.0,60.02563095790019,
2_AF1584_AF712,left,left,1.328492800006643,1,2837.880410499987,2839.332914449973,1,2022-12-27-2111,VBDM,2021.2.0,60.02563095790019,
2_AF1065_AF932,left,left,1.2400922999950126,1,2841.3299181999755,2842.682762749959,1,2022-12-27-2111,VBDM,2021.2.0,60.02563095790019,
1_AF987_AF1456,left,right,1.8048150000395253,0,2844.680149099964,2846.618070449971,1,2022-12-27-2111,VBDM,2021.2.0,60.02563095790019,
3_AF1735_AF1659,right,right,0.8235803000279702,1,2848.615833399992,2849.5830266499543,1,2022-12-27-2111,VBDM,2021.2.0,60.02563095790019,
1_AF1456_AF1434,right,right,1.242018699995242,1,2851.580772599962,2852.9163300499786,1,2022-12-27-2111,VBDM,2021.2.0,60.02563095790019,
4_AF1837_AF1982,left,left,1.1190205999882892,1,2854.91252969997,2856.18311345001,1,2022-12-27-2111,VBDM,2021.2.0,60.02563095790019,
4_AF685_AF2004,left,left,0.7717609999817796,1,2858.184937699989,2859.082691949967,1,2022-12-27-2111,VBDM,2021.2.0,60.02563095790019,
1_AF2011_AF715,right,right,1.061652900010813,1,2861.083239600004,2862.2993310499587,1,2022-12-27-2111,VBDM,2021.2.0,60.02563095790019,
1_AF2008_AF663,right,left,1.2861482999869622,0,2864.310150699981,2865.6826220499934,1,2022-12-27-2111,VBDM,2021.2.0,60.02563095790019,
2_AF1233_AF597,left,right,1.1437001000158489,0,2867.6846219999716,2868.9160544499755,1,2022-12-27-2111,VBDM,2021.2.0,60.02563095790019,
2_AF1714_AF582,left,left,1.5967682999907993,1,2870.9137232999783,2875.516027649981,1,2022-12-27-2111,VBDM,2021.2.0,60.02563095790019,
1_AF1656_AF1006,left,left,2.579294499999378,1,2877.513584600005,2880.182656649966,1,2022-12-27-2111,VBDM,2021.2.0,60.02563095790019,
2_AF1296_AF1499,right,right,3.731760299997404,1,2882.1807383999694,2885.999618550006,1,2022-12-27-2111,VBDM,2021.2.0,60.02563095790019,
3_AF867_AF1816,right,right,1.4542705999920145,1,2887.9981043000007,2889.516048349964,1,2022-12-27-2111,VBDM,2021.2.0,60.02563095790019,
1_AF1643_AF1811,left,right,2.086027599987574,0,2891.514728499984,2893.749293049972,1,2022-12-27-2111,VBDM,2021.2.0,60.02563095790019,
1_AF395_AF1171,right,right,1.2652701999759302,1,2895.7471071999753,2897.082438149955,1,2022-12-27-2111,VBDM,2021.2.0,60.02563095790019,
1_AF1501_AF1884,left,left,1.195943599974271,1,2899.079682099982,2900.3658701499808,1,2022-12-27-2111,VBDM,2021.2.0,60.02563095790019,
4_AF1297_AF1789,left,left,1.0997462999657728,1,2902.363563799998,2903.532598849968,1,2022-12-27-2111,VBDM,2021.2.0,60.02563095790019,
1_AF1669_AF1712,left,left,0.9550094999722205,1,2905.5308058999944,2906.5993213499896,1,2022-12-27-2111,VBDM,2021.2.0,60.02563095790019,
1_AF1205_AF962,left,left,1.5464971999754198,1,2908.599072299956,2910.2324336500023,1,2022-12-27-2111,VBDM,2021.2.0,60.02563095790019,
1_AF244_AF959,right,right,1.3291516000172123,1,2912.2294254999724,2913.716031249962,1,2022-12-27-2111,VBDM,2021.2.0,60.02563095790019,
4_AF1197_AF2004,left,left,1.118708299996797,1,2915.717750199954,2916.9659339499776,1,2022-12-27-2111,VBDM,2021.2.0,60.02563095790019,
1_AF1656_AF355,left,left,1.6543110000202432,1,2918.9632626000093,2920.749665749958,1,2022-12-27-2111,VBDM,2021.2.0,60.02563095790019,
1_AF2008_AF722,left,left,3.0807747000362724,1,2922.762600999966,2925.9328566499753,1,2022-12-27-2111,VBDM,2021.2.0,60.02563095790019,
1_AF1689_AF565,right,left,1.061231100000441,0,2927.932807300007,2929.0996661499958,1,2022-12-27-2111,VBDM,2021.2.0,60.02563095790019,
2_AF2003_AF600,right,right,2.3097186000086367,1,2931.0995653999853,2933.5823804499814,1,2022-12-27-2111,VBDM,2021.2.0,60.02563095790019,
1_AF1712_AF1532,right,right,1.265409699990414,1,2935.580646999995,2936.9658614500077,1,2022-12-27-2111,VBDM,2021.2.0,60.02563095790019,
1_AF2011_AF867,left,left,2.2454287000000477,1,2938.966222499963,2941.316111549968,1,2022-12-27-2111,VBDM,2021.2.0,60.02563095790019,
2_AF1312_AF959,left,left,2.1718342999811284,1,2943.3145158999832,2945.5990726499585,1,2022-12-27-2111,VBDM,2021.2.0,60.02563095790019,
2_AF1812_AF1203,right,right,0.910867300000973,1,2947.5978630000027,2948.649294450006,1,2022-12-27-2111,VBDM,2021.2.0,60.02563095790019,
3_AF1684_AF1712,left,left,1.0723001000005752,1,2950.6473071000073,2951.832385949965,1,2022-12-27-2111,VBDM,2021.2.0,60.02563095790019,
3_AF470_AF1816,right,right,1.6549713000422344,1,2953.8304558999953,2955.6324020499596,1,2022-12-27-2111,VBDM,2021.2.0,60.02563095790019,
2_AF1162_AF324,left,left,1.9725820999592543,1,2957.629520599963,2959.7324340500054,1,2022-12-27-2111,VBDM,2021.2.0,60.02563095790019,
1_AF2011_AF1064,right,left,3.1645607000100426,0,2961.7326364999753,2964.9825300499797,1,2022-12-27-2111,VBDM,2021.2.0,60.02563095790019,
3_AF1207_AF1569,left,left,1.2983133000088856,1,2966.9806774999597,2968.399199449981,1,2022-12-27-2111,VBDM,2021.2.0,60.02563095790019,
2_AF1006_AF1720,right,right,1.5656272000051104,1,2970.3956904999795,2972.049086849962,1,2022-12-27-2111,VBDM,2021.2.0,60.02563095790019,
1_AF1576_AF1669,right,right,1.1023960000020452,1,2974.0458712999825,2975.2489311500103,1,2022-12-27-2111,VBDM,2021.2.0,60.02563095790019,
2_AF1362_AF1336,left,left,1.1368316999869421,1,2977.245843999961,2978.4821418499923,1,2022-12-27-2111,VBDM,2021.2.0,60.02563095790019,
1_AF1371_AF1675,right,right,0.9340462000109255,1,2980.47854739998,2981.5324211499537,1,2022-12-27-2111,VBDM,2021.2.0,60.02563095790019,
1_AF1714_AF1532,left,left,0.7283706999733113,1,2983.531775199983,2984.4325499499682,1,2022-12-27-2111,VBDM,2021.2.0,60.02563095790019,
1_AF491_AF2009,left,left,1.7303447999875061,1,2986.430527199991,2988.315688450006,1,2022-12-27-2111,VBDM,2021.2.0,60.02563095790019,
1_AF1434_AF1955,left,left,1.4176049000234343,1,2990.314682599972,2991.8824136499898,1,2022-12-27-2111,VBDM,2021.2.0,60.02563095790019,
3_AF1207_AF569,left,left,0.8960454999469221,1,2993.8800927999546,2994.8990524499677,1,2022-12-27-2111,VBDM,2021.2.0,60.02563095790019,
1_AF1929_AF1527,left,left,0.775760899996385,1,2996.89663209999,2997.7824697499746,1,2022-12-27-2111,VBDM,2021.2.0,60.02563095790019,
2_AF1419_AF1501,right,right,1.1401886999956332,1,2999.7801541999797,3001.0325083499774,1,2022-12-27-2111,VBDM,2021.2.0,60.02563095790019,
2_AF1335_AF1396,left,left,1.1525357000064105,1,3003.0300555999856,3004.265671650006,1,2022-12-27-2111,VBDM,2021.2.0,60.02563095790019,
3_AF1207_AF1296,left,left,0.9876680999877863,1,3006.2642771999817,3007.349000749993,1,2022-12-27-2111,VBDM,2021.2.0,60.02563095790019,
1_AF1171_AF1162,right,right,1.1805585999973118,1,3009.3465296999784,3010.615636750008,1,2022-12-27-2111,VBDM,2021.2.0,60.02563095790019,
1_AF1205_AF1468,left,left,1.6792088000220247,1,3012.882701799972,3014.665719349985,1,2022-12-27-2111,VBDM,2021.2.0,60.02563095790019,
4_AF1699_AF685,right,right,0.7799049000022933,1,3016.6624122000067,3017.549187549972,1,2022-12-27-2111,VBDM,2021.2.0,60.02563095790019,
2_AF1396_AF1966,right,right,0.9725109999999404,1,3019.545958600007,3020.632512949989,1,2022-12-27-2111,VBDM,2021.2.0,60.02563095790019,
1_AF1064_AF724,left,right,1.1451586000039242,0,3022.62939919997,3023.9489280499984,1,2022-12-27-2111,VBDM,2021.2.0,60.02563095790019,
1_AF712_AF1527,right,left,1.0059444999787956,0,3025.946121999994,3027.0488954499597,1,2022-12-27-2111,VBDM,2021.2.0,60.02563095790019,
1_AF110_AF1527,right,right,1.9143299999996088,1,3029.0454067999963,3031.0488806499634,1,2022-12-27-2111,VBDM,2021.2.0,60.02563095790019,
1_AF1675_AF324,left,left,1.8484279999975115,1,3033.0474553999957,3035.032460849965,1,2022-12-27-2111,VBDM,2021.2.0,60.02563095790019,
3_AF1667_AF784,left,left,1.255732599995099,1,3037.029734999989,3038.3989656500053,1,2022-12-27-2111,VBDM,2021.2.0,60.02563095790019,
1_AF1501_AF1284,left,left,1.0771786000113934,1,3040.395261699974,3041.615560150007,1,2022-12-27-2111,VBDM,2021.2.0,60.02563095790019,
1_AF355_AF2011,right,right,1.3162783000152558,1,3043.6147725000046,3045.0821478499565,1,2022-12-27-2111,VBDM,2021.2.0,60.02563095790019,
1_AF1692_AF1689,left,right,1.4818780000205152,0,3047.0786319999606,3048.7323033499997,1,2022-12-27-2111,VBDM,2021.2.0,60.02563095790019,
1_AF1362_AF897,left,left,1.4754156999988481,1,3050.729919699952,3052.315574649954,1,2022-12-27-2111,VBDM,2021.2.0,60.02563095790019,
3_AF1207_AF1560,left,left,0.9821297000162303,1,3054.3127943999716,3055.4154255499598,1,2022-12-27-2111,VBDM,2021.2.0,60.02563095790019,
1_AF1734_AF1396,left,right,1.214035100012552,0,3057.411614199984,3058.715690049983,1,2022-12-27-2111,VBDM,2021.2.0,60.02563095790019,
2_AF1584_AF1576,left,left,0.9256490000407211,1,3060.7154218999785,3061.782570649986,1,2022-12-27-2111,VBDM,2021.2.0,60.02563095790019,
2_AF244_AF663,right,left,2.1128260000259615,0,3063.780399799987,3065.9991383499582,1,2022-12-27-2111,VBDM,2021.2.0,60.02563095790019,
1_AF1966_AF1171,left,left,1.248832199955359,1,3067.9965495999786,3069.332186649961,1,2022-12-27-2111,VBDM,2021.2.0,60.02563095790019,
1_AF1362_AF1884,left,left,1.243720700033009,1,3071.331380799995,3072.6988326499704,1,2022-12-27-2111,VBDM,2021.2.0,60.02563095790019,
2_AF1982_AF1362,right,right,1.4726079000392929,1,3074.696132299956,3076.2490687500103,1,2022-12-27-2111,VBDM,2021.2.0,60.02563095790019,
1_AF1419_AF1643,right,left,2.91821750003146,0,3078.245911999955,3081.282229650009,1,2022-12-27-2111,VBDM,2021.2.0,60.02563095790019,
2_AF1371_AF1834,right,right,1.3341443000244908,1,3083.278937999974,3084.715319849958,1,2022-12-27-2111,VBDM,2021.2.0,60.02563095790019,
3_AF569_AF639,right,right,1.2249642999959178,1,3086.711591999978,3088.0489822499803,1,2022-12-27-2111,VBDM,2021.2.0,60.02563095790019,
1_AF715_AF1527,left,left,1.151803300017491,1,3090.0473490000004,3091.3490933499997,1,2022-12-27-2111,VBDM,2021.2.0,60.02563095790019,
3_AF1684_AF2003,left,left,1.4950614999979734,1,3093.3487068999675,3094.948466049973,1,2022-12-27-2111,VBDM,2021.2.0,60.02563095790019,
2_AF244_AF2005,right,right,1.3330873000086285,1,3096.946705099952,3098.432258649962,1,2022-12-27-2111,VBDM,2021.2.0,60.02563095790019,
3_AF1816_AF1336,left,left,1.2101644999929704,1,3100.4292294000043,3101.7321948499884,1,2022-12-27-2111,VBDM,2021.2.0,60.02563095790019,
1_AF1692_AF1982,left,left,1.3288139999494888,1,3103.7302116999635,3105.148784649966,1,2022-12-27-2111,VBDM,2021.2.0,60.02563095790019,
1_AF1828_AF1666,left,right,1.2210013999720104,0,3107.14654300001,3108.465397949971,1,2022-12-27-2111,VBDM,2021.2.0,60.02563095790019,
3_AF1659_AF569,left,left,1.4356065999600105,1,3110.4625765999663,3112.0155707499944,1,2022-12-27-2111,VBDM,2021.2.0,60.02563095790019,
2_AF1499_AF900,left,left,2.2949845000403,1,3114.0130414000014,3116.4652572500054,1,2022-12-27-2111,VBDM,2021.2.0,60.02563095790019,
2_AF593_AF1982,left,left,1.1174717000103556,1,3118.461452299962,3119.698961749964,1,2022-12-27-2111,VBDM,2021.2.0,60.02563095790019,
1_AF1825_AF355,left,left,1.409138899995014,1,3121.6960123999743,3123.215332449996,1,2022-12-27-2111,VBDM,2021.2.0,60.02563095790019,
1_AF1585_AF41,right,right,2.501462400017772,1,3125.2154679999803,3127.865482449997,1,2022-12-27-2111,VBDM,2021.2.0,60.02563095790019,
2_AF569_AF1977,right,right,2.076565399998799,1,3129.8633081999724,3132.065150349983,1,2022-12-27-2111,VBDM,2021.2.0,60.02563095790019,
1_AF1812_AF593,right,left,1.0186944999732077,0,3134.0634765999857,3135.1819877499947,1,2022-12-27-2111,VBDM,2021.2.0,60.02563095790019,
3_AF1816_AF932,left,left,1.5243205000297166,1,3137.1797000999795,3138.8153834499535,1,2022-12-27-2111,VBDM,2021.2.0,60.02563095790019,
3_AF1207_AF434,left,left,1.1472137999953702,1,3140.812480099965,3142.0821508499794,1,2022-12-27-2111,VBDM,2021.2.0,60.02563095790019,
4_AF1837_AF1712,left,left,2.9113556999946013,1,3144.0803579000058,3147.0986271500005,1,2022-12-27-2111,VBDM,2021.2.0,60.02563095790019,
3_AF1903_AF1154,right,right,1.460571000003256,1,3149.0955908999895,3150.682146849984,1,2022-12-27-2111,VBDM,2021.2.0,60.02563095790019,
3_AF1816_AF1903,left,left,2.953059800027404,1,3152.6791197999846,3155.7318952499772,1,2022-12-27-2111,VBDM,2021.2.0,60.02563095790019,
2_AF1396_AF663,right,left,2.178551100019831,0,3157.7288467999897,3159.9984159499872,1,2022-12-27-2111,VBDM,2021.2.0,60.02563095790019,
2_AF1162_AF1029,left,left,1.3400578000000678,1,3161.9964543000096,3163.4654072499834,1,2022-12-27-2111,VBDM,2021.2.0,60.02563095790019,
2_AF1811_AF1714,right,right,2.2919222000055015,1,3165.46767849999,3167.8654674499994,1,2022-12-27-2111,VBDM,2021.2.0,60.02563095790019,
2_AF967_AF1532,left,right,1.2796163000166416,0,3169.8622200999525,3171.2986100499984,1,2022-12-27-2111,VBDM,2021.2.0,60.02563095790019,
2_AF1362_AF1419,left,right,1.1501385999727063,0,3173.2953142999904,3174.5986350500025,1,2022-12-27-2111,VBDM,2021.2.0,60.02563095790019,
2_AF1720_AF1371,left,left,2.167783100041561,1,3176.595377699996,3178.881880050001,1,2022-12-27-2111,VBDM,2021.2.0,60.02563095790019,
1_AF324_AF1755,right,right,1.9264728000271134,1,3180.8792299999623,3182.948920750001,1,2022-12-27-2111,VBDM,2021.2.0,60.02563095790019,
2_AF1396_AF1499,right,right,3.553821300039999,1,3184.950513799966,3188.765233049984,1,2022-12-27-2111,VBDM,2021.2.0,60.02563095790019,
3_AF434_AF639,right,right,1.2310166000388563,1,3190.762611699989,3192.198505049979,1,2022-12-27-2111,VBDM,2021.2.0,60.02563095790019,
2_AF1362_AF2010,left,left,1.5212138000060804,1,3194.198933799984,3195.882153649989,1,2022-12-27-2111,VBDM,2021.2.0,60.02563095790019,
1_AF1365_AF1638,right,left,1.670611200039275,0,3199.6984344999655,3201.5151118499925,1,2022-12-27-2111,VBDM,2021.2.0,60.02563095790019,
3_AF1207_AF1789,left,left,1.1175107999588363,1,3203.512646599964,3204.748592649994,1,2022-12-27-2111,VBDM,2021.2.0,60.02563095790019,
4_AF1832_AF1576,left,left,1.2664987000171095,1,3206.747417799954,3208.1486238499638,1,2022-12-27-2111,VBDM,2021.2.0,60.02563095790019,
4_AF1735_AF1297,right,right,0.8394855000078678,1,3210.1455532999826,3211.1152941499604,1,2022-12-27-2111,VBDM,2021.2.0,60.02563095790019,
1_AF1546_AF110,left,left,1.2228540999931283,1,3213.113444799965,3214.4650587500073,1,2022-12-27-2111,VBDM,2021.2.0,60.02563095790019,
3_AF1589_AF1699,left,right,3.8432847000076436,0,3216.462752399966,3220.415195449954,1,2022-12-27-2111,VBDM,2021.2.0,60.02563095790019,
1_AF1812_AF110,left,left,0.9390045999898575,1,3222.412063499971,3223.4988426499767,1,2022-12-27-2111,VBDM,2021.2.0,60.02563095790019,
2_AF1456_AF663,right,left,1.334505499980878,0,3225.4958422000054,3226.948405549978,1,2022-12-27-2111,VBDM,2021.2.0,60.02563095790019,
3_AF1456_AF1659,right,right,0.8713824000442401,1,3228.9458336999523,3230.032095249975,1,2022-12-27-2111,VBDM,2021.2.0,60.02563095790019,
2_AF1720_AF1982,left,left,1.2906935999635607,1,3232.0288553999853,3233.415002349997,1,2022-12-27-2111,VBDM,2021.2.0,60.02563095790019,
2_AF1955_AF1501,right,right,1.7791574000148103,1,3235.4101418000064,3237.3484015499707,1,2022-12-27-2111,VBDM,2021.2.0,60.02563095790019,
1_AF1692_AF1569,left,right,0.9629022000008263,0,3239.345799999952,3240.4317802499863,1,2022-12-27-2111,VBDM,2021.2.0,60.02563095790019,
1_AF434_AF1734,right,left,0.9105170000111684,0,3242.4285163999884,3243.414990749967,1,2022-12-27-2111,VBDM,2021.2.0,60.02563095790019,
1_AF1666_AF1714,right,left,2.350648599967826,0,3245.412867899984,3250.565114650002,1,2022-12-27-2111,VBDM,2021.2.0,60.02563095790019,
1_AF41_AF1692,left,left,2.2208761000074446,1,3252.562752400001,3254.9817666499875,1,2022-12-27-2111,VBDM,2021.2.0,60.02563095790019,
2_AF932_AF1720,right,right,1.141040999966208,1,3256.9801827999763,3258.28189345001,1,2022-12-27-2111,VBDM,2021.2.0,60.02563095790019,
2_AF1720_AF722,left,right,2.1983775999979116,0,3260.279313499981,3262.66524105001,1,2022-12-27-2111,VBDM,2021.2.0,60.02563095790019,
3_AF1203_AF2010,left,left,1.0924987000180408,1,3264.6653293999843,3265.8150528499973,1,2022-12-27-2111,VBDM,2021.2.0,60.02563095790019,
3_AF2004_AF967,right,right,1.1504367999732494,1,3267.81709159998,3269.1153592499904,1,2022-12-27-2111,VBDM,2021.2.0,60.02563095790019,
3_AF1684_AF867,left,left,1.511965500016231,1,3271.113657000009,3272.73150444997,1,2022-12-27-2111,VBDM,2021.2.0,60.02563095790019,
1_AF491_AF1666,left,right,1.2112462999648415,0,3274.7294586999924,3276.0149846499553,1,2022-12-27-2111,VBDM,2021.2.0,60.02563095790019,
3_AF1684_AF1296,left,left,1.5152012999751605,1,3278.0112237999565,3279.598241049971,1,2022-12-27-2111,VBDM,2021.2.0,60.02563095790019,
4_AF784_AF1837,right,right,1.6740467999479733,1,3281.5952098999987,3283.364992149989,1,2022-12-27-2111,VBDM,2021.2.0,60.02563095790019,
2_AF1514_AF2008,left,left,1.8464976999675855,1,3285.376173799974,3287.3649580499623,1,2022-12-27-2111,VBDM,2021.2.0,60.02563095790019,
2_AF1966_AF1006,left,left,15.220135400013532,1,3289.363655699999,3304.665041750006,1,2022-12-27-2111,VBDM,2021.2.0,60.02563095790019,
3_AF1712_AF1203,right,right,0.8475260999985039,1,3306.6615492999554,3307.59835054999,1,2022-12-27-2111,VBDM,2021.2.0,60.02563095790019,
1_AF1798_AF2001,right,right,2.1204089000239037,1,3309.597368799965,3311.831506449962,1,2022-12-27-2111,VBDM,2021.2.0,60.02563095790019,
4_AF685_AF1336,left,left,1.3903990999679081,1,3313.8296801999677,3315.2814169499907,1,2022-12-27-2111,VBDM,2021.2.0,60.02563095790019,
1_AF2001_AF582,left,left,1.3297094000154175,1,3317.280381599965,3318.7481446499587,1,2022-12-27-2111,VBDM,2021.2.0,60.02563095790019,
3_AF1684_AF1551,left,left,1.2285824000136927,1,3320.747680099972,3322.0484422500012,1,2022-12-27-2111,VBDM,2021.2.0,60.02563095790019,
1_AF1929_AF1312,right,right,3.3430424999678507,1,3324.0498014999903,3327.498265250004,1,2022-12-27-2111,VBDM,2021.2.0,60.02563095790019,
4_AF2003_AF1832,right,right,1.2040327999857254,1,3329.4965553999646,3330.798376349965,1,2022-12-27-2111,VBDM,2021.2.0,60.02563095790019,
1_AF1734_AF1929,right,right,1.121626100037247,1,3332.79662509996,3334.0650772500085,1,2022-12-27-2111,VBDM,2021.2.0,60.02563095790019,
3_AF110_AF1154,right,right,0.8549513999605551,1,3336.0626465000096,3337.0649217499886,1,2022-12-27-2111,VBDM,2021.2.0,60.02563095790019,
3_AF395_AF1207,right,right,1.0284436999936588,1,3339.062415099994,3340.181472849974,1,2022-12-27-2111,VBDM,2021.2.0,60.02563095790019,
3_AF355_AF639,right,right,1.5715248999767937,1,3342.180100400001,3343.831658149953,1,2022-12-27-2111,VBDM,2021.2.0,60.02563095790019,
2_AF1065_AF712,left,left,4.022668000019621,1,3345.8342979999725,3349.915227849968,1,2022-12-27-2111,VBDM,2021.2.0,60.02563095790019,
4_AF1197_AF2010,left,left,3.2059944000211544,1,3351.9150495000067,3355.2146288499935,1,2022-12-27-2111,VBDM,2021.2.0,60.02563095790019,
2_AF663_AF1006,left,left,1.7468195999972522,1,3357.2128410000005,3359.0481531499536,1,2022-12-27-2111,VBDM,2021.2.0,60.02563095790019,
3_AF1312_AF1712,left,left,1.2149705999763682,1,3361.0452875999617,3362.33133695001,1,2022-12-27-2111,VBDM,2021.2.0,60.02563095790019,
1_AF1699_AF1434,right,right,2.545536199992057,1,3364.328779499978,3367.015112149995,1,2022-12-27-2111,VBDM,2021.2.0,60.02563095790019,
1_AF1903_AF1884,right,left,1.3871569000184536,0,3369.0120443999767,3370.531366249954,1,2022-12-27-2111,VBDM,2021.2.0,60.02563095790019,
3_AF1203_AF1356,left,left,0.9050291999592446,1,3372.5317476000055,3373.5146895499784,1,2022-12-27-2111,VBDM,2021.2.0,60.02563095790019,
2_AF1720_AF1560,left,right,1.344783499953337,0,3375.5119374999776,3376.998507249984,1,2022-12-27-2111,VBDM,2021.2.0,60.02563095790019,
1_AF31_AF1233,right,right,0.8549906999687664,1,3378.994846299989,3379.9147360500065,1,2022-12-27-2111,VBDM,2021.2.0,60.02563095790019,
1_AF1699_AF1546,right,right,1.132637300004717,1,3381.9111703999806,3383.1479884499568,1,2022-12-27-2111,VBDM,2021.2.0,60.02563095790019,
2_AF722_AF1966,right,right,1.4650609000236727,1,3385.145567699976,3386.764912649989,1,2022-12-27-2111,VBDM,2021.2.0,60.02563095790019,
1_AF1656_AF433,left,left,1.2962625999934971,1,3388.7616187999956,3390.1483085500076,1,2022-12-27-2111,VBDM,2021.2.0,60.02563095790019,
1_AF41_AF565,left,left,0.9931198000558652,1,3392.1473392999615,3393.2814029500005,1,2022-12-27-2111,VBDM,2021.2.0,60.02563095790019,
3_AF2003_AF1203,right,right,0.7852146999794059,1,3395.2805363999796,3396.181382449984,1,2022-12-27-2111,VBDM,2021.2.0,60.02563095790019,
3_AF932_AF1684,right,right,1.5388686999795027,1,3400.765398599964,3402.464648049965,1,2022-12-27-2111,VBDM,2021.2.0,60.02563095790019,
2_AF1296_AF1929,right,right,1.1205168000306003,1,3404.46235409996,3405.63166454999,1,2022-12-27-2111,VBDM,2021.2.0,60.02563095790019,
1_AF1666_AF1162,right,left,1.2155697000562213,0,3407.628794399963,3408.9476533499546,1,2022-12-27-2111,VBDM,2021.2.0,60.02563095790019,
2_AF1162_AF2010,left,left,1.2728317999863066,1,3410.946815699979,3412.347936049977,1,2022-12-27-2111,VBDM,2021.2.0,60.02563095790019,
1_AF2004_AF897,right,right,3.047915800008923,1,3414.3495884999866,3417.5144076499855,1,2022-12-27-2111,VBDM,2021.2.0,60.02563095790019,
3_AF1312_AF2010,left,left,1.1584267999860458,1,3419.5137574999826,3420.797937049996,1,2022-12-27-2111,VBDM,2021.2.0,60.02563095790019,
2_AF1336_AF1335,right,right,0.9121181999798864,1,3422.797078899981,3423.7980089499615,1,2022-12-27-2111,VBDM,2021.2.0,60.02563095790019,
2_AF1551_AF1828,right,right,1.5218155999900773,1,3425.7951815999695,3427.381445649953,1,2022-12-27-2111,VBDM,2021.2.0,60.02563095790019,
3_AF395_AF1659,right,right,1.441169900004752,1,3429.37865899998,3430.9145204499946,1,2022-12-27-2111,VBDM,2021.2.0,60.02563095790019,
1_AF1371_AF1171,right,right,1.1768082000198774,1,3432.9120276999893,3434.19781854999,1,2022-12-27-2111,VBDM,2021.2.0,60.02563095790019,
4_AF1297_AF1468,left,left,0.8058163999812678,1,3436.1948553999537,3437.064760349982,1,2022-12-27-2111,VBDM,2021.2.0,60.02563095790019,
1_AF1966_AF1643,left,left,2.603838600043673,1,3439.060457899992,3441.731286950002,1,2022-12-27-2111,VBDM,2021.2.0,60.02563095790019,
2_AF1828_AF1798,left,left,2.324585599999409,1,3443.728669599979,3447.465038849972,1,2022-12-27-2111,VBDM,2021.2.0,60.02563095790019,
3_AF1006_AF967,right,right,2.7623021999606863,1,3449.4625495999935,3452.3313897500047,1,2022-12-27-2111,VBDM,2021.2.0,60.02563095790019,
1_AF1284_AF1813,left,right,1.1447367000509985,0,3454.328538600006,3455.59834555001,1,2022-12-27-2111,VBDM,2021.2.0,60.02563095790019,
4_AF2010_AF685,right,right,0.7632682000403292,1,3457.5974977999576,3458.4148299499648,1,2022-12-27-2111,VBDM,2021.2.0,60.02563095790019,
2_AF1585_AF1589,right,left,4.338708599971142,0,3460.411563600006,3464.8810513499775,1,2022-12-27-2111,VBDM,2021.2.0,60.02563095790019,
4_AF1297_AF433,left,left,1.16030360001605,1,3466.8822907999856,3468.1478415500023,1,2022-12-27-2111,VBDM,2021.2.0,60.02563095790019,
2_AF867_AF1064,right,right,2.3986740999971516,1,3470.144570400007,3472.631237649999,1,2022-12-27-2111,VBDM,2021.2.0,60.02563095790019,
3_AF2003_AF1589,right,left,1.865703499992378,0,3474.6305644999957,3476.6148700499907,1,2022-12-27-2111,VBDM,2021.2.0,60.02563095790019,
3_AF712_AF1667,right,right,1.1905884000007063,1,3478.6129847999546,3479.8478831499815,1,2022-12-27-2111,VBDM,2021.2.0,60.02563095790019,
2_AF1735_AF600,right,right,1.1129998000105843,1,3481.8465226999833,3483.0644178499933,1,2022-12-27-2111,VBDM,2021.2.0,60.02563095790019,
1_AF1666_AF722,left,left,0.8379444000311196,1,3485.0629934999743,3485.9982977499603,1,2022-12-27-2111,VBDM,2021.2.0,60.02563095790019,
4_AF1297_AF395,left,left,0.6784423000062816,1,3487.995722099964,3488.79759224999,1,2022-12-27-2111,VBDM,2021.2.0,60.02563095790019,
2_AF1720_AF1735,left,right,1.0611547000007704,0,3490.79490779998,3491.931026050006,1,2022-12-27-2111,VBDM,2021.2.0,60.02563095790019,
3_AF582_AF1154,right,right,0.8963639999856241,1,3493.928252999962,3494.930941049999,1,2022-12-27-2111,VBDM,2021.2.0,60.02563095790019,
1_AF1284_AF2005,right,right,1.7211905000149272,1,3496.928442000004,3498.8813173499657,1,2022-12-27-2111,VBDM,2021.2.0,60.02563095790019,
2_AF1335_AF1551,left,left,1.1591648000176065,1,3500.8796601999784,3502.097561349976,1,2022-12-27-2111,VBDM,2021.2.0,60.02563095790019,
2_AF1714_AF2003,left,left,1.1688392999931239,1,3504.0979673999827,3505.39784494997,1,2022-12-27-2111,VBDM,2021.2.0,60.02563095790019,
1_AF1405_AF987,left,left,1.4388653000351042,1,3507.3968180000084,3508.981079749996,1,2022-12-27-2111,VBDM,2021.2.0,60.02563095790019,
3_AF1684_AF434,left,left,1.119445199961774,1,3510.9789944000077,3512.1809242499876,1,2022-12-27-2111,VBDM,2021.2.0,60.02563095790019,
1_AF1825_AF1419,left,right,1.7530240999767557,0,3514.177887799975,3516.0814764499664,1,2022-12-27-2111,VBDM,2021.2.0,60.02563095790019,
3_AF1689_AF1667,right,right,1.2273581000044942,1,3518.0787551999674,3519.380899849988,1,2022-12-27-2111,VBDM,2021.2.0,60.02563095790019,
4_AF1576_AF1197,right,right,0.974433199968189,1,3521.377464399964,3522.447765649995,1,2022-12-27-2111,VBDM,2021.2.0,60.02563095790019,
2_AF1371_AF2012,right,right,1.3758060000254773,1,3524.455705499975,3525.8976929499768,1,2022-12-27-2111,VBDM,2021.2.0,60.02563095790019,
1_AF2011_AF1419,left,right,1.1740822999854572,0,3527.897930099978,3529.1477021499886,1,2022-12-27-2111,VBDM,2021.2.0,60.02563095790019,
2_AF41_AF395,left,left,1.1880357000045478,1,3531.146566899959,3532.414755349979,1,2022-12-27-2111,VBDM,2021.2.0,60.02563095790019,
4_AF1197_AF582,left,left,0.8813027000287548,1,3534.412485299981,3535.4309209499625,1,2022-12-27-2111,VBDM,2021.2.0,60.02563095790019,
2_AF2004_AF1405,right,right,0.9989390999544412,1,3537.4330660999985,3538.5142448499682,1,2022-12-27-2111,VBDM,2021.2.0,60.02563095790019,
2_AF1514_AF2001,left,right,5.060508300026413,0,3540.5134532999946,3545.7976337499567,1,2022-12-27-2111,VBDM,2021.2.0,60.02563095790019,
1_AF1811_AF1762,right,right,2.24004150001565,1,3547.794967099966,3550.1810296499752,1,2022-12-27-2111,VBDM,2021.2.0,60.02563095790019,
1_AF1171_AF1955,left,right,4.800531500019133,0,3552.179238499957,3557.0643730500014,1,2022-12-27-2111,VBDM,2021.2.0,60.02563095790019,
2_AF1270_AF1336,left,left,2.493773499969393,1,3559.0617960999953,3561.614496149996,1,2022-12-27-2111,VBDM,2021.2.0,60.02563095790019,
1_AF2001_AF2006,right,right,2.2006715000024997,1,3563.6147275999538,3565.8974156499607,1,2022-12-27-2111,VBDM,2021.2.0,60.02563095790019,
2_AF1689_AF600,right,right,0.9622426999849267,1,3567.897590999957,3568.963965150004,1,2022-12-27-2111,VBDM,2021.2.0,60.02563095790019,
4_AF1837_AF569,left,left,1.1674032000009902,1,3570.9627494000015,3572.2142391499947,1,2022-12-27-2111,VBDM,2021.2.0,60.02563095790019,
4_AF1197_AF784,left,left,0.8945207999786362,1,3574.212229800003,3575.2141653499566,1,2022-12-27-2111,VBDM,2021.2.0,60.02563095790019,
2_AF1813_AF1908,right,left,1.2030379999778233,0,3577.2107746999827,3578.5141219499637,1,2022-12-27-2111,VBDM,2021.2.0,60.02563095790019,
1_AF1371_AF1527,right,right,2.395882199984044,1,3580.5112843999523,3583.0309112499817,1,2022-12-27-2111,VBDM,2021.2.0,60.02563095790019,
1_AF1090_AF2004,left,right,0.8740457000094466,0,3585.033173999982,3586.080598749977,1,2022-12-27-2111,VBDM,2021.2.0,60.02563095790019,
4_AF1813_AF685,right,right,1.910022999974899,1,3588.3317955000093,3590.4143119499786,1,2022-12-27-2111,VBDM,2021.2.0,60.02563095790019,
1_AF1755_AF600,right,right,0.7470100999926217,1,3592.4127795000095,3593.3139403499663,1,2022-12-27-2111,VBDM,2021.2.0,60.02563095790019,
1_AF1090_AF715,right,right,2.4894585000001825,1,3595.3116893999977,3597.914046449994,1,2022-12-27-2111,VBDM,2021.2.0,60.02563095790019,
3_AF1154_AF1569,left,left,1.0484770000330172,1,3599.9117283999803,3601.0308554499643,1,2022-12-27-2111,VBDM,2021.2.0,60.02563095790019,
4_AF1837_AF1551,left,left,2.5738302000099793,1,3603.0327910999767,3605.730742349988,1,2022-12-27-2111,VBDM,2021.2.0,60.02563095790019,
3_AF1207_AF597,left,left,1.3253898999537341,1,3607.727950499975,3609.1806759499596,1,2022-12-27-2111,VBDM,2021.2.0,60.02563095790019,
3_AF1514_AF1699,left,left,2.0133009999990463,1,3611.179706099967,3613.264119450003,1,2022-12-27-2111,VBDM,2021.2.0,60.02563095790019,
1_AF1205_AF470,left,left,2.8659408999956213,1,3615.2624871999724,3618.2641963500064,1,2022-12-27-2111,VBDM,2021.2.0,60.02563095790019,
3_AF2004_AF1667,right,right,1.2741874999483116,1,3620.266113599995,3621.647358749993,1,2022-12-27-2111,VBDM,2021.2.0,60.02563095790019,
2_AF1560_AF1929,right,right,0.8490383999887854,1,3623.6460050999885,3624.647419749992,1,2022-12-27-2111,VBDM,2021.2.0,60.02563095790019,
3_AF1576_AF639,right,right,1.7591024999856018,1,3626.6446966999792,3628.5309862499707,1,2022-12-27-2111,VBDM,2021.2.0,60.02563095790019,
2_AF1834_AF1813,left,left,2.4649190999916755,1,3630.527993399999,3633.080703949963,1,2022-12-27-2111,VBDM,2021.2.0,60.02563095790019,
2_AF1560_AF1714,right,right,0.7522378999856301,1,3635.077846899978,3635.963955849991,1,2022-12-27-2111,VBDM,2021.2.0,60.02563095790019,
3_AF1699_AF639,right,right,1.0115803999942727,1,3637.960797799984,3639.0642056500074,1,2022-12-27-2111,VBDM,2021.2.0,60.02563095790019,
2_AF600_AF1699,left,left,1.2018297999748029,1,3641.0607941999915,3642.33070744999,1,2022-12-27-2111,VBDM,2021.2.0,60.02563095790019,
2_AF433_AF1270,right,right,1.5490461000008509,1,3644.3309918000014,3645.997101249988,1,2022-12-27-2111,VBDM,2021.2.0,60.02563095790019,
1_AF491_AF2,left,left,3.2603275000001304,1,3647.994273199991,3651.4642480500042,1,2022-12-27-2111,VBDM,2021.2.0,60.02563095790019,
1_AF1365_AF1977,right,right,1.6438335999846458,1,3653.4604666999658,3655.2473179500084,1,2022-12-27-2111,VBDM,2021.2.0,60.02563095790019,
3_AF1659_AF470,left,left,1.309989100031089,1,3657.2440284999902,3658.714184649987,1,2022-12-27-2111,VBDM,2021.2.0,60.02563095790019,
2_AF1371_AF600,right,left,1.2769439999829046,0,3660.7110420999816,3662.130738549982,1,2022-12-27-2111,VBDM,2021.2.0,60.02563095790019,
1_AF1689_AF1656,right,left,1.5488132000318728,0,3664.1287353999796,3665.7973558499943,1,2022-12-27-2111,VBDM,2021.2.0,60.02563095790019,
1_AF1955_AF1527,right,left,0.8543203999870457,0,3667.794667799957,3668.797374949965,1,2022-12-27-2111,VBDM,2021.2.0,60.02563095790019,
1_AF1396_AF987,right,right,1.2665676000178792,1,3670.7944373000064,3672.24719585001,1,2022-12-27-2111,VBDM,2021.2.0,60.02563095790019,
2_AF1270_AF712,left,left,1.2062922000186518,1,3674.245064299961,3675.6141969499877,1,2022-12-27-2111,VBDM,2021.2.0,60.02563095790019,
2_AF784_AF1908,right,right,1.5641498999902979,1,3677.6145867999876,3679.230736450001,1,2022-12-27-2111,VBDM,2021.2.0,60.02563095790019,
3_AF1312_AF1903,left,left,1.0142313999822363,1,3681.2319212,3682.3804536499665,1,2022-12-27-2111,VBDM,2021.2.0,60.02563095790019,
1_AF1725_AF31,left,left,1.7038688999600708,1,3684.381039300002,3686.1971725499607,1,2022-12-27-2111,VBDM,2021.2.0,60.02563095790019,
1_AF2009_AF1356,left,left,1.3470570999779738,1,3688.19603609998,3689.630573650007,1,2022-12-27-2111,VBDM,2021.2.0,60.02563095790019,
2_AF1405_AF1699,left,left,1.137981400010176,1,3691.6325212999946,3692.830509749998,1,2022-12-27-2111,VBDM,2021.2.0,60.02563095790019,
1_AF1762_AF1396,left,left,0.853599000023678,1,3694.8332174000097,3695.780639250006,1,2022-12-27-2111,VBDM,2021.2.0,60.02563095790019,
1_AF1064_AF1527,left,right,1.6542623999994248,0,3697.78301059996,3699.5306076499983,1,2022-12-27-2111,VBDM,2021.2.0,60.02563095790019,
2_AF1312_AF2001,left,left,1.3570302000152878,1,3701.530324499996,3703.0138796499814,1,2022-12-27-2111,VBDM,2021.2.0,60.02563095790019,
1_AF1966_AF1884,left,left,1.3127477999660186,1,3705.017293299956,3706.4139517499716,1,2022-12-27-2111,VBDM,2021.2.0,60.02563095790019,
1_AF1689_AF1434,right,left,1.4722558000357822,0,3708.4191090000095,3709.9472771500004,1,2022-12-27-2111,VBDM,2021.2.0,60.02563095790019,
1_AF491_AF1171,left,left,2.823898000002373,1,3711.948553800001,3714.963612249994,1,2022-12-27-2111,VBDM,2021.2.0,60.02563095790019,
4_AF434_AF1837,right,right,0.9788367999717593,1,3716.960550399963,3718.013535049977,1,2022-12-27-2111,VBDM,2021.2.0,60.02563095790019,
1_AF1929_AF1589,right,left,2.362727699975949,0,3720.0104143999633,3722.463737949962,1,2022-12-27-2111,VBDM,2021.2.0,60.02563095790019,
1_AF1789_AF1669,right,right,1.3309798000263982,1,3724.4612029999844,3725.897216549958,1,2022-12-27-2111,VBDM,2021.2.0,60.02563095790019,
2_AF1725_AF1798,left,left,0.9954487000359222,1,3727.8939525999594,3729.04703924997,1,2022-12-27-2111,VBDM,2021.2.0,60.02563095790019,
4_AF1396_AF685,right,right,0.7775590000092052,1,3731.043853899988,3731.947216450004,1,2022-12-27-2111,VBDM,2021.2.0,60.02563095790019,
4_AF1197_AF597,left,left,1.2908178000361659,1,3733.9443229999742,3735.347022550006,1,2022-12-27-2111,VBDM,2021.2.0,60.02563095790019,
2_AF1434_AF1203,right,right,2.00076630001422,1,3737.343079799961,3739.4637982499553,1,2022-12-27-2111,VBDM,2021.2.0,60.02563095790019,
4_AF1456_AF1832,right,right,1.771155499969609,1,3741.460627499968,3743.3636379499803,1,2022-12-27-2111,VBDM,2021.2.0,60.02563095790019,
1_AF1825_AF663,right,right,2.079630199994426,1,3745.364874299965,3747.647236949997,1,2022-12-27-2111,VBDM,2021.2.0,60.02563095790019,
1_AF1532_AF663,right,left,2.247833199973684,0,3749.6445107999607,3752.047250750009,1,2022-12-27-2111,VBDM,2021.2.0,60.02563095790019,
1_AF959_AF1576,left,left,1.4254781000199728,1,3754.044876699976,3755.563703049964,1,2022-12-27-2111,VBDM,2021.2.0,60.02563095790019,
2_AF1162_AF1336,left,left,1.4251406000112183,1,3757.5615011999616,3759.0472673499607,1,2022-12-27-2111,VBDM,2021.2.0,60.02563095790019,
1_AF2001_AF962,left,left,1.4598193000419997,1,3761.04596009996,3762.5637438499834,1,2022-12-27-2111,VBDM,2021.2.0,60.02563095790019,
1_AF2001_AF597,left,left,2.420186899951659,1,3764.5621130999643,3767.1135724500054,1,2022-12-27-2111,VBDM,2021.2.0,60.02563095790019,
1_AF2006_AF1692,left,left,1.1561407999834046,1,3769.111372299958,3770.363696149958,1,2022-12-27-2111,VBDM,2021.2.0,60.02563095790019,
4_AF1551_AF1832,right,right,1.3883200999698602,1,3772.831049099972,3774.2804159499938,1,2022-12-27-2111,VBDM,2021.2.0,60.02563095790019,
1_AF663_AF1884,left,right,1.527985799999442,0,3776.2775749999564,3777.9468323499896,1,2022-12-27-2111,VBDM,2021.2.0,60.02563095790019,
1_AF1977_AF1284,left,left,0.7948272999492474,1,3779.9433894999675,3780.863605249964,1,2022-12-27-2111,VBDM,2021.2.0,60.02563095790019,
4_AF433_AF685,right,right,0.7257371000014246,1,3782.8625398000004,3783.7136762499576,1,2022-12-27-2111,VBDM,2021.2.0,60.02563095790019,
1_AF1501_AF1675,left,left,2.256478600029368,1,3785.711934599967,3788.0301934499876,1,2022-12-27-2111,VBDM,2021.2.0,60.02563095790019,
3_AF1667_AF470,left,left,1.5262416999903508,1,3790.02756149997,3791.6469804499648,1,2022-12-27-2111,VBDM,2021.2.0,60.02563095790019,
2_AF1811_AF1064,right,left,2.238141300040297,0,3793.6439491999918,3795.947030649986,1,2022-12-27-2111,VBDM,2021.2.0,60.02563095790019,
3_AF1514_AF1735,left,left,0.8932176000089385,1,3797.9439341999823,3799.0305935500073,1,2022-12-27-2111,VBDM,2021.2.0,60.02563095790019,
4_AF1982_AF1197,right,right,0.9720224000047892,1,3801.0296454000054,3802.130467449955,1,2022-12-27-2111,VBDM,2021.2.0,60.02563095790019,
1_AF1270_AF897,left,left,1.2333391000283882,1,3804.127339300001,3805.4135208500084,1,2022-12-27-2111,VBDM,2021.2.0,60.02563095790019,
2_AF1735_AF1638,right,right,0.9427037000423297,1,3807.4107920000097,3808.4804756499943,1,2022-12-27-2111,VBDM,2021.2.0,60.02563095790019,
3_AF1667_AF1029,left,left,1.9088044000091031,1,3810.4791120999726,3812.480309949955,1,2022-12-27-2111,VBDM,2021.2.0,60.02563095790019,
1_AF1532_AF900,left,left,1.420763599977363,1,3814.47801359999,3815.9972282499657,1,2022-12-27-2111,VBDM,2021.2.0,60.02563095790019,
3_AF355_AF1659,right,right,1.09224730002461,1,3817.994770499994,3819.114096149977,1,2022-12-27-2111,VBDM,2021.2.0,60.02563095790019,
3_AF1589_AF1798,left,right,0.3672171999933198,0,3821.111052399967,3823.7968812499894,1,2022-12-27-2111,VBDM,2021.2.0,60.02563095790019,
2_AF1929_AF1903,left,left,1.137693999975454,1,3825.793915699993,3827.0300653500017,1,2022-12-27-2111,VBDM,2021.2.0,60.02563095790019,
2_AF1735_AF1977,right,right,3.6630437999847345,1,3829.0267241999973,3832.713373949984,1,2022-12-27-2111,VBDM,2021.2.0,60.02563095790019,
1_AF1734_AF1233,right,right,1.4909500000067055,1,3834.7104120999575,3836.330489749962,1,2022-12-27-2111,VBDM,2021.2.0,60.02563095790019,
1_AF1419_AF1532,right,right,1.5636408999562263,1,3838.3275328999734,3839.9466446499573,1,2022-12-27-2111,VBDM,2021.2.0,60.02563095790019,
1_AF1675_AF1468,left,left,1.1275157000054605,1,3841.9444210999645,3843.1638685499784,1,2022-12-27-2111,VBDM,2021.2.0,60.02563095790019,
4_AF1837_AF1468,left,left,1.8632740000030026,1,3845.16059829999,3847.0466599499923,1,2022-12-27-2111,VBDM,2021.2.0,60.02563095790019,
3_AF639_AF395,left,left,1.250142999982927,1,3849.0435800999985,3850.4467578500044,1,2022-12-27-2111,VBDM,2021.2.0,60.02563095790019,
3_AF1816_AF110,left,left,1.0594367000157945,1,3852.445290500007,3853.679994450009,1,2022-12-27-2111,VBDM,2021.2.0,60.02563095790019,
3_AF1154_AF1811,left,left,1.2391112999757752,1,3855.677135899954,3857.0302025499986,1,2022-12-27-2111,VBDM,2021.2.0,60.02563095790019,
1_AF1929_AF1546,left,left,3.6118696999619715,1,3859.0275897999527,3862.7136460499605,1,2022-12-27-2111,VBDM,2021.2.0,60.02563095790019,
2_AF1798_AF1501,right,right,1.7455146000138484,1,3864.711906899989,3866.59738105,1,2022-12-27-2111,VBDM,2021.2.0,60.02563095790019,
1_AF724_AF1584,right,right,1.8964110999950208,1,3868.5942599999835,3870.5799564499757,1,2022-12-27-2111,VBDM,2021.2.0,60.02563095790019,
2_AF1365_AF639,right,right,4.028016299998853,1,3872.5768559999997,3876.6967474499834,1,2022-12-27-2111,VBDM,2021.2.0,60.02563095790019,
1_AF2011_AF962,left,left,1.4924280000268482,1,3878.696827799955,3880.280104849953,1,2022-12-27-2111,VBDM,2021.2.0,60.02563095790019,
1_AF2006_AF2008,left,left,1.7153592000249773,1,3882.3207462999853,3884.1633105499786,1,2022-12-27-2111,VBDM,2021.2.0,60.02563095790019,
2_AF1735_AF1065,right,right,2.0054628999787383,1,3886.1865077999537,3888.2634128499776,1,2022-12-27-2111,VBDM,2021.2.0,60.02563095790019,
3_AF1154_AF867,left,left,0.9220187999890186,1,3890.2623924000072,3891.2635425499757,1,2022-12-27-2111,VBDM,2021.2.0,60.02563095790019,
1_AF470_AF1434,right,right,1.8696150000323541,1,3893.2606999999844,3896.2969466499635,1,2022-12-27-2111,VBDM,2021.2.0,60.02563095790019,
2_AF1955_AF1966,right,right,2.8525000999798067,1,3898.2935630999855,3901.3133406499983,1,2022-12-27-2111,VBDM,2021.2.0,60.02563095790019,
1_AF355_AF987,right,right,1.514956200029701,1,3903.311420699989,3904.9635512499954,1,2022-12-27-2111,VBDM,2021.2.0,60.02563095790019,
2_AF1336_AF593,right,right,1.3535295000183396,1,3906.961295999994,3908.4299335499527,1,2022-12-27-2111,VBDM,2021.2.0,60.02563095790019,
1_AF1908_AF1546,left,right,1.5200608000159264,0,3910.425537999952,3912.0299137499533,1,2022-12-27-2111,VBDM,2021.2.0,60.02563095790019,
1_AF1284_AF932,left,right,0.8806867999956012,0,3914.027197599993,3914.996594749973,1,2022-12-27-2111,VBDM,2021.2.0,60.02563095790019,
2_AF1162_AF582,left,left,1.2141207999666221,1,3916.993443799962,3918.313381249958,1,2022-12-27-2111,VBDM,2021.2.0,60.02563095790019,
4_AF1798_AF1197,right,right,0.8156665000133216,1,3920.3094053000095,3921.1632086499594,1,2022-12-27-2111,VBDM,2021.2.0,60.02563095790019,
